<?xml version="1.0" encoding="UTF-8"?>
<?xml-stylesheet type="text/xsl" href="define2-1.xsl"?>
<!--Produced with SAS 9.4 - SAS Open Clinical Standards Toolkit 1.7.6-->
<ODM xmlns:xlink="http://www.w3.org/1999/xlink" xmlns:def="http://www.cdisc.org/ns/def/v2.1" xmlns="http://www.cdisc.org/ns/odm/v1.3" FileOID="www.cdisc.org/StudyMSGv2/1/Define-XML_2.1.5_full_example" CreationDateTime="2023-04-18T16:41:35-04:00" FileType="Snapshot" ODMVersion="1.3.2" Originator="CDISC MSG Team / Lex Jansen" SourceSystem="SAS Clinical Standards Toolkit (openCST)" SourceSystemVersion="1.7" def:Context="Submission">
  <Study OID="cdisc.com/CDISCPILOT01">
    <GlobalVariables>
      <StudyName>CDISCPILOT01</StudyName>
      <StudyDescription>Study Data Tabulation Model Metadata Submission Guidelines Sample Study</StudyDescription>
      <ProtocolName>CDISCPILOT01</ProtocolName>
    </GlobalVariables>
    <MetaDataVersion OID="MDV.MSGv2.0.SDTMIG.3.3.SDTM.1.7" Name="Data Definitions for MSGv2.0 SDTM datasets." Description="This metadata version contains only a subset of SDTM domains available in the SDTMIG 3.3. The data contained do not represent the data which would appear together in an actual regulatory submission." def:DefineVersion="2.1.5" def:CommentOID="COM.MDV.MSGv2.0.SDTMIG.3.3.SDTM.1.7">
      <def:Standards>
        <def:Standard OID="STD.1" Name="SDTMIG" Type="IG" Version="3.3" Status="Final" def:CommentOID="COM.STD.1"/>
        <def:Standard OID="STD.2" Name="SDTMIG-MD" Type="IG" Version="1.1" Status="Final" def:CommentOID="COM.STD.2"/>
        <def:Standard OID="STD.3" Name="CDISC/NCI" Type="CT" PublishingSet="SDTM" Version="2020-12-18" Status="Final" def:CommentOID="COM.STD.3"/>
        <def:Standard OID="STD.4" Name="CDISC/NCI" Type="CT" PublishingSet="DEFINE-XML" Version="2022-12-16" Status="Final" def:CommentOID="COM.STD.4"/>
      </def:Standards>
      <def:AnnotatedCRF>
        <def:DocumentRef leafID="LF.acrf.001"/>
      </def:AnnotatedCRF>
      <def:SupplementalDoc>
        <def:DocumentRef leafID="LF.supportdoc.001"/>
        <def:DocumentRef leafID="LF.supportdoc.002"/>
      </def:SupplementalDoc>
      <def:ValueListDef OID="VL.AE.AETERM">
        <Description>
          <TranslatedText xml:lang="en">Example of a ValueList description.</TranslatedText>
        </Description>
        <ItemRef ItemOID="IT.AE.AETERM.WC.AE.AETERM.00001" OrderNumber="1" Mandatory="Yes">
          <def:WhereClauseRef WhereClauseOID="WC.AE.AETERM.00001"/>
        </ItemRef>
        <ItemRef ItemOID="IT.AE.AETERM.WC.AE.AETERM.00002" OrderNumber="2" Mandatory="Yes">
          <def:WhereClauseRef WhereClauseOID="WC.AE.AETERM.00002"/>
        </ItemRef>
      </def:ValueListDef>
      <def:ValueListDef OID="VL.DM.RACE">
        <ItemRef ItemOID="IT.DM.RACE.WC.DM.RACE.00004" OrderNumber="1" Mandatory="Yes">
          <def:WhereClauseRef WhereClauseOID="WC.DM.RACE.00004"/>
        </ItemRef>
        <ItemRef ItemOID="IT.DM.RACE.WC.DM.RACE.00003" OrderNumber="2" Mandatory="Yes">
          <def:WhereClauseRef WhereClauseOID="WC.DM.RACE.00003"/>
        </ItemRef>
      </def:ValueListDef>
      <def:ValueListDef OID="VL.DS.DSDECOD">
        <ItemRef ItemOID="IT.DS.DSDECOD.WC.DS.DSDECOD.00006" OrderNumber="1" Mandatory="No">
          <def:WhereClauseRef WhereClauseOID="WC.DS.DSDECOD.00006"/>
        </ItemRef>
        <ItemRef ItemOID="IT.DS.DSDECOD.WC.DS.DSDECOD.00005" OrderNumber="2" Mandatory="No">
          <def:WhereClauseRef WhereClauseOID="WC.DS.DSDECOD.00005"/>
        </ItemRef>
      </def:ValueListDef>
      <def:ValueListDef OID="VL.DS.DSTERM">
        <ItemRef ItemOID="IT.DS.DSTERM.WC.DS.DSTERM.00008" OrderNumber="1" Mandatory="No">
          <def:WhereClauseRef WhereClauseOID="WC.DS.DSTERM.00008"/>
        </ItemRef>
        <ItemRef ItemOID="IT.DS.DSTERM.WC.DS.DSTERM.00007" OrderNumber="2" Mandatory="No">
          <def:WhereClauseRef WhereClauseOID="WC.DS.DSTERM.00007"/>
        </ItemRef>
      </def:ValueListDef>
      <def:ValueListDef OID="VL.FA.FAORRES">
        <ItemRef ItemOID="IT.FA.FAORRES.WC.FA.FAORRES.00010" OrderNumber="1" Mandatory="No">
          <def:WhereClauseRef WhereClauseOID="WC.FA.FAORRES.00010"/>
        </ItemRef>
        <ItemRef ItemOID="IT.FA.FAORRES.WC.FA.FAORRES.00009" OrderNumber="2" Mandatory="No">
          <def:WhereClauseRef WhereClauseOID="WC.FA.FAORRES.00009"/>
        </ItemRef>
      </def:ValueListDef>
      <def:ValueListDef OID="VL.FA.FASTRESC">
        <ItemRef ItemOID="IT.FA.FASTRESC.WC.FA.FASTRESC.00012" OrderNumber="1" Mandatory="No">
          <def:WhereClauseRef WhereClauseOID="WC.FA.FASTRESC.00012"/>
        </ItemRef>
        <ItemRef ItemOID="IT.FA.FASTRESC.WC.FA.FASTRESC.00011" OrderNumber="2" Mandatory="No">
          <def:WhereClauseRef WhereClauseOID="WC.FA.FASTRESC.00011"/>
        </ItemRef>
      </def:ValueListDef>
      <def:ValueListDef OID="VL.FT.FTORRES">
        <ItemRef ItemOID="IT.FT.FTORRES.WC.FT.FTORRES.00013" OrderNumber="1" Mandatory="No">
          <def:WhereClauseRef WhereClauseOID="WC.FT.FTORRES.00013"/>
        </ItemRef>
        <ItemRef ItemOID="IT.FT.FTORRES.WC.FT.FTORRES.00014" OrderNumber="2" Mandatory="No">
          <def:WhereClauseRef WhereClauseOID="WC.FT.FTORRES.00014"/>
        </ItemRef>
        <ItemRef ItemOID="IT.FT.FTORRES.WC.FT.FTORRES.00015" OrderNumber="3" Mandatory="No">
          <def:WhereClauseRef WhereClauseOID="WC.FT.FTORRES.00015"/>
        </ItemRef>
        <ItemRef ItemOID="IT.FT.FTORRES.WC.FT.FTORRES.00016" OrderNumber="4" Mandatory="No">
          <def:WhereClauseRef WhereClauseOID="WC.FT.FTORRES.00016"/>
        </ItemRef>
      </def:ValueListDef>
      <def:ValueListDef OID="VL.LB.LBORRES">
        <ItemRef ItemOID="IT.LB.LBORRES.WC.LB.LBORRES.00024" OrderNumber="1" Mandatory="No">
          <def:WhereClauseRef WhereClauseOID="WC.LB.LBORRES.00024"/>
        </ItemRef>
        <ItemRef ItemOID="IT.LB.LBORRES.WC.LB.LBORRES.00021" OrderNumber="2" Mandatory="No">
          <def:WhereClauseRef WhereClauseOID="WC.LB.LBORRES.00021"/>
        </ItemRef>
        <ItemRef ItemOID="IT.LB.LBORRES.WC.LB.LBORRES.00023" OrderNumber="3" Mandatory="No">
          <def:WhereClauseRef WhereClauseOID="WC.LB.LBORRES.00023"/>
        </ItemRef>
        <ItemRef ItemOID="IT.LB.LBORRES.WC.LB.LBORRES.00019" OrderNumber="4" Mandatory="No">
          <def:WhereClauseRef WhereClauseOID="WC.LB.LBORRES.00019"/>
        </ItemRef>
        <ItemRef ItemOID="IT.LB.LBORRES.WC.LB.LBORRES.00022" OrderNumber="5" Mandatory="No">
          <def:WhereClauseRef WhereClauseOID="WC.LB.LBORRES.00022"/>
        </ItemRef>
        <ItemRef ItemOID="IT.LB.LBORRES.WC.LB.LBORRES.00025" OrderNumber="6" Mandatory="No">
          <def:WhereClauseRef WhereClauseOID="WC.LB.LBORRES.00025"/>
        </ItemRef>
        <ItemRef ItemOID="IT.LB.LBORRES.WC.LB.LBORRES.00020" OrderNumber="7" Mandatory="No">
          <def:WhereClauseRef WhereClauseOID="WC.LB.LBORRES.00020"/>
        </ItemRef>
        <ItemRef ItemOID="IT.LB.LBORRES.WC.LB.LBORRES.00017" OrderNumber="8" Mandatory="No">
          <def:WhereClauseRef WhereClauseOID="WC.LB.LBORRES.00017"/>
        </ItemRef>
        <ItemRef ItemOID="IT.LB.LBORRES.WC.LB.LBORRES.00018" OrderNumber="9" Mandatory="No">
          <def:WhereClauseRef WhereClauseOID="WC.LB.LBORRES.00018"/>
        </ItemRef>
      </def:ValueListDef>
      <def:ValueListDef OID="VL.LB.LBORRESU">
        <ItemRef ItemOID="IT.LB.LBORRESU.WC.LB.LBORRESU.00028" OrderNumber="1" Mandatory="No">
          <def:WhereClauseRef WhereClauseOID="WC.LB.LBORRESU.00028"/>
        </ItemRef>
        <ItemRef ItemOID="IT.LB.LBORRESU.WC.LB.LBORRESU.00026" OrderNumber="2" Mandatory="No">
          <def:WhereClauseRef WhereClauseOID="WC.LB.LBORRESU.00026"/>
        </ItemRef>
        <ItemRef ItemOID="IT.LB.LBORRESU.WC.LB.LBORRESU.00027" OrderNumber="3" Mandatory="No">
          <def:WhereClauseRef WhereClauseOID="WC.LB.LBORRESU.00027"/>
        </ItemRef>
        <ItemRef ItemOID="IT.LB.LBORRESU.WC.LB.LBORRESU.00029" OrderNumber="4" Mandatory="No">
          <def:WhereClauseRef WhereClauseOID="WC.LB.LBORRESU.00029"/>
        </ItemRef>
        <ItemRef ItemOID="IT.LB.LBORRESU.WC.LB.LBORRESU.00030" OrderNumber="5" Mandatory="No">
          <def:WhereClauseRef WhereClauseOID="WC.LB.LBORRESU.00030"/>
        </ItemRef>
        <ItemRef ItemOID="IT.LB.LBORRESU.WC.LB.LBORRESU.00031" OrderNumber="6" Mandatory="No">
          <def:WhereClauseRef WhereClauseOID="WC.LB.LBORRESU.00031"/>
        </ItemRef>
        <ItemRef ItemOID="IT.LB.LBORRESU.WC.LB.LBORRESU.00032" OrderNumber="7" Mandatory="No">
          <def:WhereClauseRef WhereClauseOID="WC.LB.LBORRESU.00032"/>
        </ItemRef>
        <ItemRef ItemOID="IT.LB.LBORRESU.WC.LB.LBORRESU.00035" OrderNumber="8" Mandatory="No">
          <def:WhereClauseRef WhereClauseOID="WC.LB.LBORRESU.00035"/>
        </ItemRef>
        <ItemRef ItemOID="IT.LB.LBORRESU.WC.LB.LBORRESU.00033" OrderNumber="9" Mandatory="No">
          <def:WhereClauseRef WhereClauseOID="WC.LB.LBORRESU.00033"/>
        </ItemRef>
        <ItemRef ItemOID="IT.LB.LBORRESU.WC.LB.LBORRESU.00034" OrderNumber="10" Mandatory="No">
          <def:WhereClauseRef WhereClauseOID="WC.LB.LBORRESU.00034"/>
        </ItemRef>
        <ItemRef ItemOID="IT.LB.LBORRESU.WC.LB.LBORRESU.00036" OrderNumber="11" Mandatory="No">
          <def:WhereClauseRef WhereClauseOID="WC.LB.LBORRESU.00036"/>
        </ItemRef>
        <ItemRef ItemOID="IT.LB.LBORRESU.WC.LB.LBORRESU.00037" OrderNumber="12" Mandatory="No">
          <def:WhereClauseRef WhereClauseOID="WC.LB.LBORRESU.00037"/>
        </ItemRef>
        <ItemRef ItemOID="IT.LB.LBORRESU.WC.LB.LBORRESU.00044" OrderNumber="13" Mandatory="No">
          <def:WhereClauseRef WhereClauseOID="WC.LB.LBORRESU.00044"/>
        </ItemRef>
        <ItemRef ItemOID="IT.LB.LBORRESU.WC.LB.LBORRESU.00045" OrderNumber="14" Mandatory="No">
          <def:WhereClauseRef WhereClauseOID="WC.LB.LBORRESU.00045"/>
        </ItemRef>
        <ItemRef ItemOID="IT.LB.LBORRESU.WC.LB.LBORRESU.00046" OrderNumber="15" Mandatory="No">
          <def:WhereClauseRef WhereClauseOID="WC.LB.LBORRESU.00046"/>
        </ItemRef>
        <ItemRef ItemOID="IT.LB.LBORRESU.WC.LB.LBORRESU.00051" OrderNumber="16" Mandatory="No">
          <def:WhereClauseRef WhereClauseOID="WC.LB.LBORRESU.00051"/>
        </ItemRef>
        <ItemRef ItemOID="IT.LB.LBORRESU.WC.LB.LBORRESU.00038" OrderNumber="17" Mandatory="No">
          <def:WhereClauseRef WhereClauseOID="WC.LB.LBORRESU.00038"/>
        </ItemRef>
        <ItemRef ItemOID="IT.LB.LBORRESU.WC.LB.LBORRESU.00039" OrderNumber="18" Mandatory="No">
          <def:WhereClauseRef WhereClauseOID="WC.LB.LBORRESU.00039"/>
        </ItemRef>
        <ItemRef ItemOID="IT.LB.LBORRESU.WC.LB.LBORRESU.00040" OrderNumber="19" Mandatory="No">
          <def:WhereClauseRef WhereClauseOID="WC.LB.LBORRESU.00040"/>
        </ItemRef>
        <ItemRef ItemOID="IT.LB.LBORRESU.WC.LB.LBORRESU.00041" OrderNumber="20" Mandatory="No">
          <def:WhereClauseRef WhereClauseOID="WC.LB.LBORRESU.00041"/>
        </ItemRef>
        <ItemRef ItemOID="IT.LB.LBORRESU.WC.LB.LBORRESU.00057" OrderNumber="21" Mandatory="No">
          <def:WhereClauseRef WhereClauseOID="WC.LB.LBORRESU.00057"/>
        </ItemRef>
        <ItemRef ItemOID="IT.LB.LBORRESU.WC.LB.LBORRESU.00043" OrderNumber="22" Mandatory="No">
          <def:WhereClauseRef WhereClauseOID="WC.LB.LBORRESU.00043"/>
        </ItemRef>
        <ItemRef ItemOID="IT.LB.LBORRESU.WC.LB.LBORRESU.00047" OrderNumber="23" Mandatory="No">
          <def:WhereClauseRef WhereClauseOID="WC.LB.LBORRESU.00047"/>
        </ItemRef>
        <ItemRef ItemOID="IT.LB.LBORRESU.WC.LB.LBORRESU.00048" OrderNumber="24" Mandatory="No">
          <def:WhereClauseRef WhereClauseOID="WC.LB.LBORRESU.00048"/>
        </ItemRef>
        <ItemRef ItemOID="IT.LB.LBORRESU.WC.LB.LBORRESU.00049" OrderNumber="25" Mandatory="No">
          <def:WhereClauseRef WhereClauseOID="WC.LB.LBORRESU.00049"/>
        </ItemRef>
        <ItemRef ItemOID="IT.LB.LBORRESU.WC.LB.LBORRESU.00042" OrderNumber="26" Mandatory="No">
          <def:WhereClauseRef WhereClauseOID="WC.LB.LBORRESU.00042"/>
        </ItemRef>
        <ItemRef ItemOID="IT.LB.LBORRESU.WC.LB.LBORRESU.00050" OrderNumber="27" Mandatory="No">
          <def:WhereClauseRef WhereClauseOID="WC.LB.LBORRESU.00050"/>
        </ItemRef>
        <ItemRef ItemOID="IT.LB.LBORRESU.WC.LB.LBORRESU.00052" OrderNumber="28" Mandatory="No">
          <def:WhereClauseRef WhereClauseOID="WC.LB.LBORRESU.00052"/>
        </ItemRef>
        <ItemRef ItemOID="IT.LB.LBORRESU.WC.LB.LBORRESU.00053" OrderNumber="29" Mandatory="No">
          <def:WhereClauseRef WhereClauseOID="WC.LB.LBORRESU.00053"/>
        </ItemRef>
        <ItemRef ItemOID="IT.LB.LBORRESU.WC.LB.LBORRESU.00054" OrderNumber="30" Mandatory="No">
          <def:WhereClauseRef WhereClauseOID="WC.LB.LBORRESU.00054"/>
        </ItemRef>
        <ItemRef ItemOID="IT.LB.LBORRESU.WC.LB.LBORRESU.00055" OrderNumber="31" Mandatory="No">
          <def:WhereClauseRef WhereClauseOID="WC.LB.LBORRESU.00055"/>
        </ItemRef>
        <ItemRef ItemOID="IT.LB.LBORRESU.WC.LB.LBORRESU.00056" OrderNumber="32" Mandatory="No">
          <def:WhereClauseRef WhereClauseOID="WC.LB.LBORRESU.00056"/>
        </ItemRef>
      </def:ValueListDef>
      <def:ValueListDef OID="VL.LB.LBSTRESC">
        <ItemRef ItemOID="IT.LB.LBSTRESC.WC.LB.LBSTRESC.00064" OrderNumber="1" Mandatory="No">
          <def:WhereClauseRef WhereClauseOID="WC.LB.LBSTRESC.00064"/>
        </ItemRef>
        <ItemRef ItemOID="IT.LB.LBSTRESC.WC.LB.LBSTRESC.00066" OrderNumber="2" Mandatory="No">
          <def:WhereClauseRef WhereClauseOID="WC.LB.LBSTRESC.00066"/>
        </ItemRef>
        <ItemRef ItemOID="IT.LB.LBSTRESC.WC.LB.LBSTRESC.00073" OrderNumber="3" Mandatory="No">
          <def:WhereClauseRef WhereClauseOID="WC.LB.LBSTRESC.00073"/>
        </ItemRef>
        <ItemRef ItemOID="IT.LB.LBSTRESC.WC.LB.LBSTRESC.00058" OrderNumber="4" Mandatory="No">
          <def:WhereClauseRef WhereClauseOID="WC.LB.LBSTRESC.00058"/>
        </ItemRef>
        <ItemRef ItemOID="IT.LB.LBSTRESC.WC.LB.LBSTRESC.00074" OrderNumber="5" Mandatory="No">
          <def:WhereClauseRef WhereClauseOID="WC.LB.LBSTRESC.00074"/>
        </ItemRef>
        <ItemRef ItemOID="IT.LB.LBSTRESC.WC.LB.LBSTRESC.00061" OrderNumber="6" Mandatory="No">
          <def:WhereClauseRef WhereClauseOID="WC.LB.LBSTRESC.00061"/>
        </ItemRef>
        <ItemRef ItemOID="IT.LB.LBSTRESC.WC.LB.LBSTRESC.00067" OrderNumber="7" Mandatory="No">
          <def:WhereClauseRef WhereClauseOID="WC.LB.LBSTRESC.00067"/>
        </ItemRef>
        <ItemRef ItemOID="IT.LB.LBSTRESC.WC.LB.LBSTRESC.00065" OrderNumber="8" Mandatory="No">
          <def:WhereClauseRef WhereClauseOID="WC.LB.LBSTRESC.00065"/>
        </ItemRef>
        <ItemRef ItemOID="IT.LB.LBSTRESC.WC.LB.LBSTRESC.00072" OrderNumber="9" Mandatory="No">
          <def:WhereClauseRef WhereClauseOID="WC.LB.LBSTRESC.00072"/>
        </ItemRef>
        <ItemRef ItemOID="IT.LB.LBSTRESC.WC.LB.LBSTRESC.00068" OrderNumber="10" Mandatory="No">
          <def:WhereClauseRef WhereClauseOID="WC.LB.LBSTRESC.00068"/>
        </ItemRef>
        <ItemRef ItemOID="IT.LB.LBSTRESC.WC.LB.LBSTRESC.00063" OrderNumber="11" Mandatory="No">
          <def:WhereClauseRef WhereClauseOID="WC.LB.LBSTRESC.00063"/>
        </ItemRef>
        <ItemRef ItemOID="IT.LB.LBSTRESC.WC.LB.LBSTRESC.00071" OrderNumber="12" Mandatory="No">
          <def:WhereClauseRef WhereClauseOID="WC.LB.LBSTRESC.00071"/>
        </ItemRef>
        <ItemRef ItemOID="IT.LB.LBSTRESC.WC.LB.LBSTRESC.00069" OrderNumber="13" Mandatory="No">
          <def:WhereClauseRef WhereClauseOID="WC.LB.LBSTRESC.00069"/>
        </ItemRef>
        <ItemRef ItemOID="IT.LB.LBSTRESC.WC.LB.LBSTRESC.00070" OrderNumber="14" Mandatory="No">
          <def:WhereClauseRef WhereClauseOID="WC.LB.LBSTRESC.00070"/>
        </ItemRef>
        <ItemRef ItemOID="IT.LB.LBSTRESC.WC.LB.LBSTRESC.00059" OrderNumber="15" Mandatory="No">
          <def:WhereClauseRef WhereClauseOID="WC.LB.LBSTRESC.00059"/>
        </ItemRef>
        <ItemRef ItemOID="IT.LB.LBSTRESC.WC.LB.LBSTRESC.00060" OrderNumber="16" Mandatory="No">
          <def:WhereClauseRef WhereClauseOID="WC.LB.LBSTRESC.00060"/>
        </ItemRef>
        <ItemRef ItemOID="IT.LB.LBSTRESC.WC.LB.LBSTRESC.00062" OrderNumber="17" Mandatory="No">
          <def:WhereClauseRef WhereClauseOID="WC.LB.LBSTRESC.00062"/>
        </ItemRef>
      </def:ValueListDef>
      <def:ValueListDef OID="VL.LB.LBSTRESU">
        <ItemRef ItemOID="IT.LB.LBSTRESU.WC.LB.LBSTRESU.00077" OrderNumber="1" Mandatory="No">
          <def:WhereClauseRef WhereClauseOID="WC.LB.LBSTRESU.00077"/>
        </ItemRef>
        <ItemRef ItemOID="IT.LB.LBSTRESU.WC.LB.LBSTRESU.00075" OrderNumber="2" Mandatory="No">
          <def:WhereClauseRef WhereClauseOID="WC.LB.LBSTRESU.00075"/>
        </ItemRef>
        <ItemRef ItemOID="IT.LB.LBSTRESU.WC.LB.LBSTRESU.00076" OrderNumber="3" Mandatory="No">
          <def:WhereClauseRef WhereClauseOID="WC.LB.LBSTRESU.00076"/>
        </ItemRef>
        <ItemRef ItemOID="IT.LB.LBSTRESU.WC.LB.LBSTRESU.00078" OrderNumber="4" Mandatory="No">
          <def:WhereClauseRef WhereClauseOID="WC.LB.LBSTRESU.00078"/>
        </ItemRef>
        <ItemRef ItemOID="IT.LB.LBSTRESU.WC.LB.LBSTRESU.00079" OrderNumber="5" Mandatory="No">
          <def:WhereClauseRef WhereClauseOID="WC.LB.LBSTRESU.00079"/>
        </ItemRef>
        <ItemRef ItemOID="IT.LB.LBSTRESU.WC.LB.LBSTRESU.00080" OrderNumber="6" Mandatory="No">
          <def:WhereClauseRef WhereClauseOID="WC.LB.LBSTRESU.00080"/>
        </ItemRef>
        <ItemRef ItemOID="IT.LB.LBSTRESU.WC.LB.LBSTRESU.00081" OrderNumber="7" Mandatory="No">
          <def:WhereClauseRef WhereClauseOID="WC.LB.LBSTRESU.00081"/>
        </ItemRef>
        <ItemRef ItemOID="IT.LB.LBSTRESU.WC.LB.LBSTRESU.00084" OrderNumber="8" Mandatory="No">
          <def:WhereClauseRef WhereClauseOID="WC.LB.LBSTRESU.00084"/>
        </ItemRef>
        <ItemRef ItemOID="IT.LB.LBSTRESU.WC.LB.LBSTRESU.00082" OrderNumber="9" Mandatory="No">
          <def:WhereClauseRef WhereClauseOID="WC.LB.LBSTRESU.00082"/>
        </ItemRef>
        <ItemRef ItemOID="IT.LB.LBSTRESU.WC.LB.LBSTRESU.00083" OrderNumber="10" Mandatory="No">
          <def:WhereClauseRef WhereClauseOID="WC.LB.LBSTRESU.00083"/>
        </ItemRef>
        <ItemRef ItemOID="IT.LB.LBSTRESU.WC.LB.LBSTRESU.00085" OrderNumber="11" Mandatory="No">
          <def:WhereClauseRef WhereClauseOID="WC.LB.LBSTRESU.00085"/>
        </ItemRef>
        <ItemRef ItemOID="IT.LB.LBSTRESU.WC.LB.LBSTRESU.00086" OrderNumber="12" Mandatory="No">
          <def:WhereClauseRef WhereClauseOID="WC.LB.LBSTRESU.00086"/>
        </ItemRef>
        <ItemRef ItemOID="IT.LB.LBSTRESU.WC.LB.LBSTRESU.00092" OrderNumber="13" Mandatory="No">
          <def:WhereClauseRef WhereClauseOID="WC.LB.LBSTRESU.00092"/>
        </ItemRef>
        <ItemRef ItemOID="IT.LB.LBSTRESU.WC.LB.LBSTRESU.00093" OrderNumber="14" Mandatory="No">
          <def:WhereClauseRef WhereClauseOID="WC.LB.LBSTRESU.00093"/>
        </ItemRef>
        <ItemRef ItemOID="IT.LB.LBSTRESU.WC.LB.LBSTRESU.00094" OrderNumber="15" Mandatory="No">
          <def:WhereClauseRef WhereClauseOID="WC.LB.LBSTRESU.00094"/>
        </ItemRef>
        <ItemRef ItemOID="IT.LB.LBSTRESU.WC.LB.LBSTRESU.00099" OrderNumber="16" Mandatory="No">
          <def:WhereClauseRef WhereClauseOID="WC.LB.LBSTRESU.00099"/>
        </ItemRef>
        <ItemRef ItemOID="IT.LB.LBSTRESU.WC.LB.LBSTRESU.00087" OrderNumber="17" Mandatory="No">
          <def:WhereClauseRef WhereClauseOID="WC.LB.LBSTRESU.00087"/>
        </ItemRef>
        <ItemRef ItemOID="IT.LB.LBSTRESU.WC.LB.LBSTRESU.00088" OrderNumber="18" Mandatory="No">
          <def:WhereClauseRef WhereClauseOID="WC.LB.LBSTRESU.00088"/>
        </ItemRef>
        <ItemRef ItemOID="IT.LB.LBSTRESU.WC.LB.LBSTRESU.00089" OrderNumber="19" Mandatory="No">
          <def:WhereClauseRef WhereClauseOID="WC.LB.LBSTRESU.00089"/>
        </ItemRef>
        <ItemRef ItemOID="IT.LB.LBSTRESU.WC.LB.LBSTRESU.00105" OrderNumber="20" Mandatory="No">
          <def:WhereClauseRef WhereClauseOID="WC.LB.LBSTRESU.00105"/>
        </ItemRef>
        <ItemRef ItemOID="IT.LB.LBSTRESU.WC.LB.LBSTRESU.00091" OrderNumber="21" Mandatory="No">
          <def:WhereClauseRef WhereClauseOID="WC.LB.LBSTRESU.00091"/>
        </ItemRef>
        <ItemRef ItemOID="IT.LB.LBSTRESU.WC.LB.LBSTRESU.00095" OrderNumber="22" Mandatory="No">
          <def:WhereClauseRef WhereClauseOID="WC.LB.LBSTRESU.00095"/>
        </ItemRef>
        <ItemRef ItemOID="IT.LB.LBSTRESU.WC.LB.LBSTRESU.00096" OrderNumber="23" Mandatory="No">
          <def:WhereClauseRef WhereClauseOID="WC.LB.LBSTRESU.00096"/>
        </ItemRef>
        <ItemRef ItemOID="IT.LB.LBSTRESU.WC.LB.LBSTRESU.00097" OrderNumber="24" Mandatory="No">
          <def:WhereClauseRef WhereClauseOID="WC.LB.LBSTRESU.00097"/>
        </ItemRef>
        <ItemRef ItemOID="IT.LB.LBSTRESU.WC.LB.LBSTRESU.00090" OrderNumber="25" Mandatory="No">
          <def:WhereClauseRef WhereClauseOID="WC.LB.LBSTRESU.00090"/>
        </ItemRef>
        <ItemRef ItemOID="IT.LB.LBSTRESU.WC.LB.LBSTRESU.00098" OrderNumber="26" Mandatory="No">
          <def:WhereClauseRef WhereClauseOID="WC.LB.LBSTRESU.00098"/>
        </ItemRef>
        <ItemRef ItemOID="IT.LB.LBSTRESU.WC.LB.LBSTRESU.00100" OrderNumber="27" Mandatory="No">
          <def:WhereClauseRef WhereClauseOID="WC.LB.LBSTRESU.00100"/>
        </ItemRef>
        <ItemRef ItemOID="IT.LB.LBSTRESU.WC.LB.LBSTRESU.00101" OrderNumber="28" Mandatory="No">
          <def:WhereClauseRef WhereClauseOID="WC.LB.LBSTRESU.00101"/>
        </ItemRef>
        <ItemRef ItemOID="IT.LB.LBSTRESU.WC.LB.LBSTRESU.00102" OrderNumber="29" Mandatory="No">
          <def:WhereClauseRef WhereClauseOID="WC.LB.LBSTRESU.00102"/>
        </ItemRef>
        <ItemRef ItemOID="IT.LB.LBSTRESU.WC.LB.LBSTRESU.00103" OrderNumber="30" Mandatory="No">
          <def:WhereClauseRef WhereClauseOID="WC.LB.LBSTRESU.00103"/>
        </ItemRef>
        <ItemRef ItemOID="IT.LB.LBSTRESU.WC.LB.LBSTRESU.00104" OrderNumber="31" Mandatory="No">
          <def:WhereClauseRef WhereClauseOID="WC.LB.LBSTRESU.00104"/>
        </ItemRef>
      </def:ValueListDef>
      <def:ValueListDef OID="VL.OE.OEORRES">
        <ItemRef ItemOID="IT.OE.OEORRES.WC.OE.OEORRES.00107" OrderNumber="1" Mandatory="No">
          <def:WhereClauseRef WhereClauseOID="WC.OE.OEORRES.00107"/>
        </ItemRef>
        <ItemRef ItemOID="IT.OE.OEORRES.WC.OE.OEORRES.00106" OrderNumber="2" Mandatory="No">
          <def:WhereClauseRef WhereClauseOID="WC.OE.OEORRES.00106"/>
        </ItemRef>
      </def:ValueListDef>
      <def:ValueListDef OID="VL.QSPH.QSORRES">
        <ItemRef ItemOID="IT.QSPH.QSORRES.WC.QSPH.QSORRES.00110" OrderNumber="1" Mandatory="Yes">
          <def:WhereClauseRef WhereClauseOID="WC.QSPH.QSORRES.00110"/>
        </ItemRef>
        <ItemRef ItemOID="IT.QSPH.QSORRES.WC.QSPH.QSORRES.00108" OrderNumber="2" Mandatory="Yes">
          <def:WhereClauseRef WhereClauseOID="WC.QSPH.QSORRES.00108"/>
        </ItemRef>
        <ItemRef ItemOID="IT.QSPH.QSORRES.WC.QSPH.QSORRES.00109" OrderNumber="3" Mandatory="Yes">
          <def:WhereClauseRef WhereClauseOID="WC.QSPH.QSORRES.00109"/>
        </ItemRef>
      </def:ValueListDef>
      <def:ValueListDef OID="VL.QSPH.QSSTRESC">
        <ItemRef ItemOID="IT.QSPH.QSSTRESC.WC.QSPH.QSSTRESC.00113" OrderNumber="1" Mandatory="Yes" MethodOID="MT.QSPH.QSSTRESC.WC.QSPH.QSSTRESC.00113">
          <def:WhereClauseRef WhereClauseOID="WC.QSPH.QSSTRESC.00113"/>
        </ItemRef>
        <ItemRef ItemOID="IT.QSPH.QSSTRESC.WC.QSPH.QSSTRESC.00111" OrderNumber="2" Mandatory="Yes" MethodOID="MT.QSPH.QSSTRESC.WC.QSPH.QSSTRESC.00111">
          <def:WhereClauseRef WhereClauseOID="WC.QSPH.QSSTRESC.00111"/>
        </ItemRef>
        <ItemRef ItemOID="IT.QSPH.QSSTRESC.WC.QSPH.QSSTRESC.00112" OrderNumber="3" Mandatory="Yes">
          <def:WhereClauseRef WhereClauseOID="WC.QSPH.QSSTRESC.00112"/>
        </ItemRef>
      </def:ValueListDef>
      <def:ValueListDef OID="VL.RS.RSORRES">
        <ItemRef ItemOID="IT.RS.RSORRES.WC.RS.RSORRES.00114" OrderNumber="1" Mandatory="No">
          <def:WhereClauseRef WhereClauseOID="WC.RS.RSORRES.00114"/>
        </ItemRef>
        <ItemRef ItemOID="IT.RS.RSORRES.WC.RS.RSORRES.00115" OrderNumber="2" Mandatory="No">
          <def:WhereClauseRef WhereClauseOID="WC.RS.RSORRES.00115"/>
        </ItemRef>
        <ItemRef ItemOID="IT.RS.RSORRES.WC.RS.RSORRES.00116" OrderNumber="3" Mandatory="No">
          <def:WhereClauseRef WhereClauseOID="WC.RS.RSORRES.00116"/>
        </ItemRef>
        <ItemRef ItemOID="IT.RS.RSORRES.WC.RS.RSORRES.00117" OrderNumber="4" Mandatory="No">
          <def:WhereClauseRef WhereClauseOID="WC.RS.RSORRES.00117"/>
        </ItemRef>
        <ItemRef ItemOID="IT.RS.RSORRES.WC.RS.RSORRES.00118" OrderNumber="5" Mandatory="No">
          <def:WhereClauseRef WhereClauseOID="WC.RS.RSORRES.00118"/>
        </ItemRef>
        <ItemRef ItemOID="IT.RS.RSORRES.WC.RS.RSORRES.00119" OrderNumber="6" Mandatory="No">
          <def:WhereClauseRef WhereClauseOID="WC.RS.RSORRES.00119"/>
        </ItemRef>
        <ItemRef ItemOID="IT.RS.RSORRES.WC.RS.RSORRES.00120" OrderNumber="7" Mandatory="No">
          <def:WhereClauseRef WhereClauseOID="WC.RS.RSORRES.00120"/>
        </ItemRef>
        <ItemRef ItemOID="IT.RS.RSORRES.WC.RS.RSORRES.00121" OrderNumber="8" Mandatory="No">
          <def:WhereClauseRef WhereClauseOID="WC.RS.RSORRES.00121"/>
        </ItemRef>
        <ItemRef ItemOID="IT.RS.RSORRES.WC.RS.RSORRES.00122" OrderNumber="9" Mandatory="No">
          <def:WhereClauseRef WhereClauseOID="WC.RS.RSORRES.00122"/>
        </ItemRef>
        <ItemRef ItemOID="IT.RS.RSORRES.WC.RS.RSORRES.00123" OrderNumber="10" Mandatory="No">
          <def:WhereClauseRef WhereClauseOID="WC.RS.RSORRES.00123"/>
        </ItemRef>
        <ItemRef ItemOID="IT.RS.RSORRES.WC.RS.RSORRES.00124" OrderNumber="11" Mandatory="No">
          <def:WhereClauseRef WhereClauseOID="WC.RS.RSORRES.00124"/>
        </ItemRef>
        <ItemRef ItemOID="IT.RS.RSORRES.WC.RS.RSORRES.00125" OrderNumber="12" Mandatory="No">
          <def:WhereClauseRef WhereClauseOID="WC.RS.RSORRES.00125"/>
        </ItemRef>
        <ItemRef ItemOID="IT.RS.RSORRES.WC.RS.RSORRES.00126" OrderNumber="13" Mandatory="No">
          <def:WhereClauseRef WhereClauseOID="WC.RS.RSORRES.00126"/>
        </ItemRef>
        <ItemRef ItemOID="IT.RS.RSORRES.WC.RS.RSORRES.00127" OrderNumber="14" Mandatory="No">
          <def:WhereClauseRef WhereClauseOID="WC.RS.RSORRES.00127"/>
        </ItemRef>
        <ItemRef ItemOID="IT.RS.RSORRES.WC.RS.RSORRES.00128" OrderNumber="15" Mandatory="No">
          <def:WhereClauseRef WhereClauseOID="WC.RS.RSORRES.00128"/>
        </ItemRef>
        <ItemRef ItemOID="IT.RS.RSORRES.WC.RS.RSORRES.00129" OrderNumber="16" Mandatory="No">
          <def:WhereClauseRef WhereClauseOID="WC.RS.RSORRES.00129"/>
        </ItemRef>
        <ItemRef ItemOID="IT.RS.RSORRES.WC.RS.RSORRES.00130" OrderNumber="17" Mandatory="No">
          <def:WhereClauseRef WhereClauseOID="WC.RS.RSORRES.00130"/>
        </ItemRef>
        <ItemRef ItemOID="IT.RS.RSORRES.WC.RS.RSORRES.00131" OrderNumber="18" Mandatory="No">
          <def:WhereClauseRef WhereClauseOID="WC.RS.RSORRES.00131"/>
        </ItemRef>
        <ItemRef ItemOID="IT.RS.RSORRES.WC.RS.RSORRES.00132" OrderNumber="19" Mandatory="No">
          <def:WhereClauseRef WhereClauseOID="WC.RS.RSORRES.00132"/>
        </ItemRef>
      </def:ValueListDef>
      <def:ValueListDef OID="VL.RS.RSSTRESC">
        <ItemRef ItemOID="IT.RS.RSSTRESC.WC.RS.RSSTRESC.00133" OrderNumber="1" Mandatory="No">
          <def:WhereClauseRef WhereClauseOID="WC.RS.RSSTRESC.00133"/>
        </ItemRef>
        <ItemRef ItemOID="IT.RS.RSSTRESC.WC.RS.RSSTRESC.00134" OrderNumber="2" Mandatory="No">
          <def:WhereClauseRef WhereClauseOID="WC.RS.RSSTRESC.00134"/>
        </ItemRef>
        <ItemRef ItemOID="IT.RS.RSSTRESC.WC.RS.RSSTRESC.00135" OrderNumber="3" Mandatory="No">
          <def:WhereClauseRef WhereClauseOID="WC.RS.RSSTRESC.00135"/>
        </ItemRef>
        <ItemRef ItemOID="IT.RS.RSSTRESC.WC.RS.RSSTRESC.00136" OrderNumber="4" Mandatory="No">
          <def:WhereClauseRef WhereClauseOID="WC.RS.RSSTRESC.00136"/>
        </ItemRef>
        <ItemRef ItemOID="IT.RS.RSSTRESC.WC.RS.RSSTRESC.00137" OrderNumber="5" Mandatory="No">
          <def:WhereClauseRef WhereClauseOID="WC.RS.RSSTRESC.00137"/>
        </ItemRef>
        <ItemRef ItemOID="IT.RS.RSSTRESC.WC.RS.RSSTRESC.00138" OrderNumber="6" Mandatory="No">
          <def:WhereClauseRef WhereClauseOID="WC.RS.RSSTRESC.00138"/>
        </ItemRef>
        <ItemRef ItemOID="IT.RS.RSSTRESC.WC.RS.RSSTRESC.00139" OrderNumber="7" Mandatory="No">
          <def:WhereClauseRef WhereClauseOID="WC.RS.RSSTRESC.00139"/>
        </ItemRef>
        <ItemRef ItemOID="IT.RS.RSSTRESC.WC.RS.RSSTRESC.00140" OrderNumber="8" Mandatory="No">
          <def:WhereClauseRef WhereClauseOID="WC.RS.RSSTRESC.00140"/>
        </ItemRef>
        <ItemRef ItemOID="IT.RS.RSSTRESC.WC.RS.RSSTRESC.00141" OrderNumber="9" Mandatory="No">
          <def:WhereClauseRef WhereClauseOID="WC.RS.RSSTRESC.00141"/>
        </ItemRef>
        <ItemRef ItemOID="IT.RS.RSSTRESC.WC.RS.RSSTRESC.00142" OrderNumber="10" Mandatory="No">
          <def:WhereClauseRef WhereClauseOID="WC.RS.RSSTRESC.00142"/>
        </ItemRef>
        <ItemRef ItemOID="IT.RS.RSSTRESC.WC.RS.RSSTRESC.00143" OrderNumber="11" Mandatory="No">
          <def:WhereClauseRef WhereClauseOID="WC.RS.RSSTRESC.00143"/>
        </ItemRef>
        <ItemRef ItemOID="IT.RS.RSSTRESC.WC.RS.RSSTRESC.00144" OrderNumber="12" Mandatory="No">
          <def:WhereClauseRef WhereClauseOID="WC.RS.RSSTRESC.00144"/>
        </ItemRef>
        <ItemRef ItemOID="IT.RS.RSSTRESC.WC.RS.RSSTRESC.00145" OrderNumber="13" Mandatory="No">
          <def:WhereClauseRef WhereClauseOID="WC.RS.RSSTRESC.00145"/>
        </ItemRef>
        <ItemRef ItemOID="IT.RS.RSSTRESC.WC.RS.RSSTRESC.00146" OrderNumber="14" Mandatory="No">
          <def:WhereClauseRef WhereClauseOID="WC.RS.RSSTRESC.00146"/>
        </ItemRef>
        <ItemRef ItemOID="IT.RS.RSSTRESC.WC.RS.RSSTRESC.00147" OrderNumber="15" Mandatory="No">
          <def:WhereClauseRef WhereClauseOID="WC.RS.RSSTRESC.00147"/>
        </ItemRef>
        <ItemRef ItemOID="IT.RS.RSSTRESC.WC.RS.RSSTRESC.00148" OrderNumber="16" Mandatory="No">
          <def:WhereClauseRef WhereClauseOID="WC.RS.RSSTRESC.00148"/>
        </ItemRef>
        <ItemRef ItemOID="IT.RS.RSSTRESC.WC.RS.RSSTRESC.00149" OrderNumber="17" Mandatory="No">
          <def:WhereClauseRef WhereClauseOID="WC.RS.RSSTRESC.00149"/>
        </ItemRef>
        <ItemRef ItemOID="IT.RS.RSSTRESC.WC.RS.RSSTRESC.00150" OrderNumber="18" Mandatory="No">
          <def:WhereClauseRef WhereClauseOID="WC.RS.RSSTRESC.00150"/>
        </ItemRef>
        <ItemRef ItemOID="IT.RS.RSSTRESC.WC.RS.RSSTRESC.00151" OrderNumber="19" Mandatory="No">
          <def:WhereClauseRef WhereClauseOID="WC.RS.RSSTRESC.00151"/>
        </ItemRef>
      </def:ValueListDef>
      <def:ValueListDef OID="VL.SUPPDM.QVAL">
        <ItemRef ItemOID="IT.SUPPDM.QVAL.WC.SUPPDM.QVAL.00152" OrderNumber="1" Mandatory="Yes" Role="Result Qualifier">
          <def:WhereClauseRef WhereClauseOID="WC.SUPPDM.QVAL.00152"/>
        </ItemRef>
        <ItemRef ItemOID="IT.SUPPDM.QVAL.WC.SUPPDM.QVAL.00153" OrderNumber="2" Mandatory="Yes" Role="Result Qualifier">
          <def:WhereClauseRef WhereClauseOID="WC.SUPPDM.QVAL.00153"/>
        </ItemRef>
        <ItemRef ItemOID="IT.SUPPDM.QVAL.WC.SUPPDM.QVAL.00154" OrderNumber="3" Mandatory="Yes" Role="Result Qualifier">
          <def:WhereClauseRef WhereClauseOID="WC.SUPPDM.QVAL.00154"/>
        </ItemRef>
        <ItemRef ItemOID="IT.SUPPDM.QVAL.WC.SUPPDM.QVAL.00155" OrderNumber="4" Mandatory="Yes" Role="Result Qualifier" def:HasNoData="Yes">
          <def:WhereClauseRef WhereClauseOID="WC.SUPPDM.QVAL.00155"/>
        </ItemRef>
        <ItemRef ItemOID="IT.SUPPDM.QVAL.WC.SUPPDM.QVAL.00156" OrderNumber="5" Mandatory="Yes" Role="Result Qualifier" def:HasNoData="Yes">
          <def:WhereClauseRef WhereClauseOID="WC.SUPPDM.QVAL.00156"/>
        </ItemRef>
      </def:ValueListDef>
      <def:ValueListDef OID="VL.SUPPEC.QVAL">
        <ItemRef ItemOID="IT.SUPPEC.QVAL.WC.SUPPEC.QVAL.00157" OrderNumber="1" Mandatory="Yes" Role="Variable Qualifier">
          <def:WhereClauseRef WhereClauseOID="WC.SUPPEC.QVAL.00157"/>
        </ItemRef>
      </def:ValueListDef>
      <def:ValueListDef OID="VL.SUPPNV.QVAL">
        <ItemRef ItemOID="IT.SUPPNV.QVAL.WC.SUPPNV.QVAL.00158" OrderNumber="1" Mandatory="Yes" Role="Result Qualifier">
          <def:WhereClauseRef WhereClauseOID="WC.SUPPNV.QVAL.00158"/>
        </ItemRef>
      </def:ValueListDef>
      <def:ValueListDef OID="VL.SUPPOE.QVAL">
        <ItemRef ItemOID="IT.SUPPOE.QVAL.WC.SUPPOE.QVAL.00159" OrderNumber="1" Mandatory="No" Role="Result Qualifier">
          <def:WhereClauseRef WhereClauseOID="WC.SUPPOE.QVAL.00159"/>
        </ItemRef>
      </def:ValueListDef>
      <def:ValueListDef OID="VL.TS.TSVAL">
        <ItemRef ItemOID="IT.TS.TSVAL.WC.TS.TSVAL.00187" OrderNumber="1" Mandatory="No">
          <def:WhereClauseRef WhereClauseOID="WC.TS.TSVAL.00187"/>
        </ItemRef>
        <ItemRef ItemOID="IT.TS.TSVAL.WC.TS.TSVAL.00188" OrderNumber="2" Mandatory="No">
          <def:WhereClauseRef WhereClauseOID="WC.TS.TSVAL.00188"/>
        </ItemRef>
        <ItemRef ItemOID="IT.TS.TSVAL.WC.TS.TSVAL.00190" OrderNumber="3" Mandatory="No">
          <def:WhereClauseRef WhereClauseOID="WC.TS.TSVAL.00190"/>
        </ItemRef>
        <ItemRef ItemOID="IT.TS.TSVAL.WC.TS.TSVAL.00160" OrderNumber="4" Mandatory="No">
          <def:WhereClauseRef WhereClauseOID="WC.TS.TSVAL.00160"/>
        </ItemRef>
        <ItemRef ItemOID="IT.TS.TSVAL.WC.TS.TSVAL.00161" OrderNumber="5" Mandatory="No">
          <def:WhereClauseRef WhereClauseOID="WC.TS.TSVAL.00161"/>
        </ItemRef>
        <ItemRef ItemOID="IT.TS.TSVAL.WC.TS.TSVAL.00162" OrderNumber="6" Mandatory="No">
          <def:WhereClauseRef WhereClauseOID="WC.TS.TSVAL.00162"/>
        </ItemRef>
        <ItemRef ItemOID="IT.TS.TSVAL.WC.TS.TSVAL.00163" OrderNumber="7" Mandatory="No">
          <def:WhereClauseRef WhereClauseOID="WC.TS.TSVAL.00163"/>
        </ItemRef>
        <ItemRef ItemOID="IT.TS.TSVAL.WC.TS.TSVAL.00164" OrderNumber="8" Mandatory="No">
          <def:WhereClauseRef WhereClauseOID="WC.TS.TSVAL.00164"/>
        </ItemRef>
        <ItemRef ItemOID="IT.TS.TSVAL.WC.TS.TSVAL.00165" OrderNumber="9" Mandatory="No">
          <def:WhereClauseRef WhereClauseOID="WC.TS.TSVAL.00165"/>
        </ItemRef>
        <ItemRef ItemOID="IT.TS.TSVAL.WC.TS.TSVAL.00166" OrderNumber="10" Mandatory="No">
          <def:WhereClauseRef WhereClauseOID="WC.TS.TSVAL.00166"/>
        </ItemRef>
        <ItemRef ItemOID="IT.TS.TSVAL.WC.TS.TSVAL.00184" OrderNumber="11" Mandatory="No">
          <def:WhereClauseRef WhereClauseOID="WC.TS.TSVAL.00184"/>
        </ItemRef>
        <ItemRef ItemOID="IT.TS.TSVAL.WC.TS.TSVAL.00167" OrderNumber="12" Mandatory="No">
          <def:WhereClauseRef WhereClauseOID="WC.TS.TSVAL.00167"/>
        </ItemRef>
        <ItemRef ItemOID="IT.TS.TSVAL.WC.TS.TSVAL.00168" OrderNumber="13" Mandatory="No">
          <def:WhereClauseRef WhereClauseOID="WC.TS.TSVAL.00168"/>
        </ItemRef>
        <ItemRef ItemOID="IT.TS.TSVAL.WC.TS.TSVAL.00169" OrderNumber="14" Mandatory="No">
          <def:WhereClauseRef WhereClauseOID="WC.TS.TSVAL.00169"/>
        </ItemRef>
        <ItemRef ItemOID="IT.TS.TSVAL.WC.TS.TSVAL.00170" OrderNumber="15" Mandatory="No">
          <def:WhereClauseRef WhereClauseOID="WC.TS.TSVAL.00170"/>
        </ItemRef>
        <ItemRef ItemOID="IT.TS.TSVAL.WC.TS.TSVAL.00185" OrderNumber="16" Mandatory="No">
          <def:WhereClauseRef WhereClauseOID="WC.TS.TSVAL.00185"/>
        </ItemRef>
        <ItemRef ItemOID="IT.TS.TSVAL.WC.TS.TSVAL.00171" OrderNumber="17" Mandatory="No">
          <def:WhereClauseRef WhereClauseOID="WC.TS.TSVAL.00171"/>
        </ItemRef>
        <ItemRef ItemOID="IT.TS.TSVAL.WC.TS.TSVAL.00172" OrderNumber="18" Mandatory="No">
          <def:WhereClauseRef WhereClauseOID="WC.TS.TSVAL.00172"/>
        </ItemRef>
        <ItemRef ItemOID="IT.TS.TSVAL.WC.TS.TSVAL.00189" OrderNumber="19" Mandatory="No">
          <def:WhereClauseRef WhereClauseOID="WC.TS.TSVAL.00189"/>
        </ItemRef>
        <ItemRef ItemOID="IT.TS.TSVAL.WC.TS.TSVAL.00173" OrderNumber="20" Mandatory="No">
          <def:WhereClauseRef WhereClauseOID="WC.TS.TSVAL.00173"/>
        </ItemRef>
        <ItemRef ItemOID="IT.TS.TSVAL.WC.TS.TSVAL.00174" OrderNumber="21" Mandatory="No">
          <def:WhereClauseRef WhereClauseOID="WC.TS.TSVAL.00174"/>
        </ItemRef>
        <ItemRef ItemOID="IT.TS.TSVAL.WC.TS.TSVAL.00175" OrderNumber="22" Mandatory="No">
          <def:WhereClauseRef WhereClauseOID="WC.TS.TSVAL.00175"/>
        </ItemRef>
        <ItemRef ItemOID="IT.TS.TSVAL.WC.TS.TSVAL.00176" OrderNumber="23" Mandatory="No">
          <def:WhereClauseRef WhereClauseOID="WC.TS.TSVAL.00176"/>
        </ItemRef>
        <ItemRef ItemOID="IT.TS.TSVAL.WC.TS.TSVAL.00177" OrderNumber="24" Mandatory="No">
          <def:WhereClauseRef WhereClauseOID="WC.TS.TSVAL.00177"/>
        </ItemRef>
        <ItemRef ItemOID="IT.TS.TSVAL.WC.TS.TSVAL.00178" OrderNumber="25" Mandatory="No">
          <def:WhereClauseRef WhereClauseOID="WC.TS.TSVAL.00178"/>
        </ItemRef>
        <ItemRef ItemOID="IT.TS.TSVAL.WC.TS.TSVAL.00179" OrderNumber="26" Mandatory="No">
          <def:WhereClauseRef WhereClauseOID="WC.TS.TSVAL.00179"/>
        </ItemRef>
        <ItemRef ItemOID="IT.TS.TSVAL.WC.TS.TSVAL.00180" OrderNumber="27" Mandatory="No">
          <def:WhereClauseRef WhereClauseOID="WC.TS.TSVAL.00180"/>
        </ItemRef>
        <ItemRef ItemOID="IT.TS.TSVAL.WC.TS.TSVAL.00181" OrderNumber="28" Mandatory="No">
          <def:WhereClauseRef WhereClauseOID="WC.TS.TSVAL.00181"/>
        </ItemRef>
        <ItemRef ItemOID="IT.TS.TSVAL.WC.TS.TSVAL.00182" OrderNumber="29" Mandatory="No">
          <def:WhereClauseRef WhereClauseOID="WC.TS.TSVAL.00182"/>
        </ItemRef>
        <ItemRef ItemOID="IT.TS.TSVAL.WC.TS.TSVAL.00183" OrderNumber="30" Mandatory="No">
          <def:WhereClauseRef WhereClauseOID="WC.TS.TSVAL.00183"/>
        </ItemRef>
        <ItemRef ItemOID="IT.TS.TSVAL.WC.TS.TSVAL.00186" OrderNumber="31" Mandatory="No">
          <def:WhereClauseRef WhereClauseOID="WC.TS.TSVAL.00186"/>
        </ItemRef>
      </def:ValueListDef>
      <def:ValueListDef OID="VL.VS.VSORRES">
        <ItemRef ItemOID="IT.VS.VSORRES.WC.VS.VSORRES.00195" OrderNumber="2" Mandatory="No">
          <def:WhereClauseRef WhereClauseOID="WC.VS.VSORRES.00195"/>
        </ItemRef>
        <ItemRef ItemOID="IT.VS.VSORRES.WC.VS.VSORRES.00191" OrderNumber="3" Mandatory="No">
          <def:WhereClauseRef WhereClauseOID="WC.VS.VSORRES.00191"/>
        </ItemRef>
        <ItemRef ItemOID="IT.VS.VSORRES.WC.VS.VSORRES.00192" OrderNumber="4" Mandatory="No">
          <def:WhereClauseRef WhereClauseOID="WC.VS.VSORRES.00192"/>
        </ItemRef>
        <ItemRef ItemOID="IT.VS.VSORRES.WC.VS.VSORRES.00193" OrderNumber="5" Mandatory="No">
          <def:WhereClauseRef WhereClauseOID="WC.VS.VSORRES.00193"/>
        </ItemRef>
        <ItemRef ItemOID="IT.VS.VSORRES.WC.VS.VSORRES.00194" OrderNumber="6" Mandatory="No">
          <def:WhereClauseRef WhereClauseOID="WC.VS.VSORRES.00194"/>
        </ItemRef>
      </def:ValueListDef>
      <def:ValueListDef OID="VL.VS.VSORRESU">
        <ItemRef ItemOID="IT.VS.VSORRESU.WC.VS.VSORRESU.00200" OrderNumber="2" Mandatory="No">
          <def:WhereClauseRef WhereClauseOID="WC.VS.VSORRESU.00200"/>
        </ItemRef>
        <ItemRef ItemOID="IT.VS.VSORRESU.WC.VS.VSORRESU.00196" OrderNumber="3" Mandatory="No">
          <def:WhereClauseRef WhereClauseOID="WC.VS.VSORRESU.00196"/>
        </ItemRef>
        <ItemRef ItemOID="IT.VS.VSORRESU.WC.VS.VSORRESU.00197" OrderNumber="4" Mandatory="No">
          <def:WhereClauseRef WhereClauseOID="WC.VS.VSORRESU.00197"/>
        </ItemRef>
        <ItemRef ItemOID="IT.VS.VSORRESU.WC.VS.VSORRESU.00198" OrderNumber="5" Mandatory="No">
          <def:WhereClauseRef WhereClauseOID="WC.VS.VSORRESU.00198"/>
        </ItemRef>
        <ItemRef ItemOID="IT.VS.VSORRESU.WC.VS.VSORRESU.00199" OrderNumber="6" Mandatory="No">
          <def:WhereClauseRef WhereClauseOID="WC.VS.VSORRESU.00199"/>
        </ItemRef>
      </def:ValueListDef>
      <def:ValueListDef OID="VL.VS.VSSTRESN">
        <ItemRef ItemOID="IT.VS.VSSTRESN.WC.VS.VSSTRESN.00201" OrderNumber="1" Mandatory="No" MethodOID="MT.VS.VSSTRESN.WC.VS.VSSTRESN.00201">
          <def:WhereClauseRef WhereClauseOID="WC.VS.VSSTRESN.00201"/>
        </ItemRef>
        <ItemRef ItemOID="IT.VS.VSSTRESN.WC.VS.VSSTRESN.00206" OrderNumber="2" Mandatory="No">
          <def:WhereClauseRef WhereClauseOID="WC.VS.VSSTRESN.00206"/>
        </ItemRef>
        <ItemRef ItemOID="IT.VS.VSSTRESN.WC.VS.VSSTRESN.00202" OrderNumber="3" Mandatory="No">
          <def:WhereClauseRef WhereClauseOID="WC.VS.VSSTRESN.00202"/>
        </ItemRef>
        <ItemRef ItemOID="IT.VS.VSSTRESN.WC.VS.VSSTRESN.00203" OrderNumber="4" Mandatory="No">
          <def:WhereClauseRef WhereClauseOID="WC.VS.VSSTRESN.00203"/>
        </ItemRef>
        <ItemRef ItemOID="IT.VS.VSSTRESN.WC.VS.VSSTRESN.00204" OrderNumber="5" Mandatory="No">
          <def:WhereClauseRef WhereClauseOID="WC.VS.VSSTRESN.00204"/>
        </ItemRef>
        <ItemRef ItemOID="IT.VS.VSSTRESN.WC.VS.VSSTRESN.00205" OrderNumber="6" Mandatory="No">
          <def:WhereClauseRef WhereClauseOID="WC.VS.VSSTRESN.00205"/>
        </ItemRef>
      </def:ValueListDef>
      <def:ValueListDef OID="VL.VS.VSSTRESU">
        <ItemRef ItemOID="IT.VS.VSSTRESU.WC.VS.VSSTRESU.00207" OrderNumber="1" Mandatory="No">
          <def:WhereClauseRef WhereClauseOID="WC.VS.VSSTRESU.00207"/>
        </ItemRef>
        <ItemRef ItemOID="IT.VS.VSSTRESU.WC.VS.VSSTRESU.00212" OrderNumber="2" Mandatory="No">
          <def:WhereClauseRef WhereClauseOID="WC.VS.VSSTRESU.00212"/>
        </ItemRef>
        <ItemRef ItemOID="IT.VS.VSSTRESU.WC.VS.VSSTRESU.00208" OrderNumber="3" Mandatory="No">
          <def:WhereClauseRef WhereClauseOID="WC.VS.VSSTRESU.00208"/>
        </ItemRef>
        <ItemRef ItemOID="IT.VS.VSSTRESU.WC.VS.VSSTRESU.00209" OrderNumber="4" Mandatory="No">
          <def:WhereClauseRef WhereClauseOID="WC.VS.VSSTRESU.00209"/>
        </ItemRef>
        <ItemRef ItemOID="IT.VS.VSSTRESU.WC.VS.VSSTRESU.00210" OrderNumber="5" Mandatory="No">
          <def:WhereClauseRef WhereClauseOID="WC.VS.VSSTRESU.00210"/>
        </ItemRef>
        <ItemRef ItemOID="IT.VS.VSSTRESU.WC.VS.VSSTRESU.00211" OrderNumber="6" Mandatory="No">
          <def:WhereClauseRef WhereClauseOID="WC.VS.VSSTRESU.00211"/>
        </ItemRef>
      </def:ValueListDef>
      <def:WhereClauseDef OID="WC.AE.AETERM.00001">
        <RangeCheck Comparator="EQ" SoftHard="Soft" def:ItemOID="IT.AE.AETERM">
          <CheckValue>INJECTION SITE REACTION</CheckValue>
        </RangeCheck>
      </def:WhereClauseDef>
      <def:WhereClauseDef OID="WC.AE.AETERM.00002">
        <RangeCheck Comparator="NE" SoftHard="Soft" def:ItemOID="IT.AE.AETERM">
          <CheckValue>INJECTION SITE REACTION</CheckValue>
        </RangeCheck>
      </def:WhereClauseDef>
      <def:WhereClauseDef OID="WC.DM.RACE.00003">
        <RangeCheck Comparator="EQ" SoftHard="Soft" def:ItemOID="IT.DM.RACE">
          <CheckValue>MULTIPLE</CheckValue>
        </RangeCheck>
      </def:WhereClauseDef>
      <def:WhereClauseDef OID="WC.DM.RACE.00004">
        <RangeCheck Comparator="NE" SoftHard="Soft" def:ItemOID="IT.DM.RACE">
          <CheckValue>MULTIPLE</CheckValue>
        </RangeCheck>
      </def:WhereClauseDef>
      <def:WhereClauseDef OID="WC.DS.DSDECOD.00005">
        <RangeCheck Comparator="EQ" SoftHard="Soft" def:ItemOID="IT.DS.DSSCAT">
          <CheckValue/>
        </RangeCheck>
      </def:WhereClauseDef>
      <def:WhereClauseDef OID="WC.DS.DSDECOD.00006">
        <RangeCheck Comparator="NE" SoftHard="Soft" def:ItemOID="IT.DS.DSSCAT">
          <CheckValue/>
        </RangeCheck>
      </def:WhereClauseDef>
      <def:WhereClauseDef OID="WC.DS.DSTERM.00007">
        <RangeCheck Comparator="EQ" SoftHard="Soft" def:ItemOID="IT.DS.DSSCAT">
          <CheckValue/>
        </RangeCheck>
      </def:WhereClauseDef>
      <def:WhereClauseDef OID="WC.DS.DSTERM.00008">
        <RangeCheck Comparator="NE" SoftHard="Soft" def:ItemOID="IT.DS.DSSCAT">
          <CheckValue/>
        </RangeCheck>
      </def:WhereClauseDef>
      <def:WhereClauseDef OID="WC.FA.FAORRES.00009">
        <RangeCheck Comparator="EQ" SoftHard="Soft" def:ItemOID="IT.FA.FATESTCD">
          <CheckValue>OCCUR</CheckValue>
        </RangeCheck>
      </def:WhereClauseDef>
      <def:WhereClauseDef OID="WC.FA.FAORRES.00010">
        <RangeCheck Comparator="EQ" SoftHard="Soft" def:ItemOID="IT.FA.FATESTCD">
          <CheckValue>SEV</CheckValue>
        </RangeCheck>
      </def:WhereClauseDef>
      <def:WhereClauseDef OID="WC.FA.FASTRESC.00011">
        <RangeCheck Comparator="EQ" SoftHard="Soft" def:ItemOID="IT.FA.FATESTCD">
          <CheckValue>OCCUR</CheckValue>
        </RangeCheck>
      </def:WhereClauseDef>
      <def:WhereClauseDef OID="WC.FA.FASTRESC.00012">
        <RangeCheck Comparator="EQ" SoftHard="Soft" def:ItemOID="IT.FA.FATESTCD">
          <CheckValue>SEV</CheckValue>
        </RangeCheck>
      </def:WhereClauseDef>
      <def:WhereClauseDef OID="WC.FT.FTORRES.00013">
        <RangeCheck Comparator="IN" SoftHard="Soft" def:ItemOID="IT.FT.FTTESTCD">
          <CheckValue>AVL0201</CheckValue>
          <CheckValue>AVL0202</CheckValue>
          <CheckValue>AVL0203</CheckValue>
          <CheckValue>AVL0204</CheckValue>
          <CheckValue>AVL0205</CheckValue>
          <CheckValue>AVL0206</CheckValue>
          <CheckValue>AVL0207</CheckValue>
          <CheckValue>AVL0208</CheckValue>
          <CheckValue>AVL0209</CheckValue>
          <CheckValue>AVL0210</CheckValue>
          <CheckValue>AVL0211</CheckValue>
          <CheckValue>AVL0212</CheckValue>
          <CheckValue>AVL0213</CheckValue>
          <CheckValue>AVL0214</CheckValue>
          <CheckValue>AVL0215</CheckValue>
        </RangeCheck>
      </def:WhereClauseDef>
      <def:WhereClauseDef OID="WC.FT.FTORRES.00014">
        <RangeCheck Comparator="IN" SoftHard="Soft" def:ItemOID="IT.FT.FTTESTCD">
          <CheckValue>AVL0216</CheckValue>
          <CheckValue>AVL0217</CheckValue>
        </RangeCheck>
      </def:WhereClauseDef>
      <def:WhereClauseDef OID="WC.FT.FTORRES.00015">
        <RangeCheck Comparator="IN" SoftHard="Soft" def:ItemOID="IT.FT.FTTESTCD">
          <CheckValue>AVL0218</CheckValue>
          <CheckValue>AVL0219</CheckValue>
          <CheckValue>AVL0220</CheckValue>
          <CheckValue>AVL0221</CheckValue>
          <CheckValue>AVL0222</CheckValue>
          <CheckValue>AVL0223</CheckValue>
          <CheckValue>AVL0224</CheckValue>
          <CheckValue>AVL0225</CheckValue>
          <CheckValue>AVL0226</CheckValue>
          <CheckValue>AVL0227</CheckValue>
          <CheckValue>AVL0228</CheckValue>
          <CheckValue>AVL0229</CheckValue>
          <CheckValue>AVL0230</CheckValue>
          <CheckValue>AVL0231</CheckValue>
          <CheckValue>AVL0232</CheckValue>
        </RangeCheck>
      </def:WhereClauseDef>
      <def:WhereClauseDef OID="WC.FT.FTORRES.00016">
        <RangeCheck Comparator="IN" SoftHard="Soft" def:ItemOID="IT.FT.FTTESTCD">
          <CheckValue>AVL0233</CheckValue>
          <CheckValue>AVL0234</CheckValue>
        </RangeCheck>
      </def:WhereClauseDef>
      <def:WhereClauseDef OID="WC.LB.LBORRES.00017">
        <RangeCheck Comparator="EQ" SoftHard="Soft" def:ItemOID="IT.LB.LBTESTCD">
          <CheckValue>COLOR</CheckValue>
        </RangeCheck>
      </def:WhereClauseDef>
      <def:WhereClauseDef OID="WC.LB.LBORRES.00018">
        <RangeCheck Comparator="EQ" SoftHard="Soft" def:ItemOID="IT.LB.LBTESTCD">
          <CheckValue>GLUC</CheckValue>
        </RangeCheck>
      </def:WhereClauseDef>
      <def:WhereClauseDef OID="WC.LB.LBORRES.00019">
        <RangeCheck Comparator="EQ" SoftHard="Soft" def:ItemOID="IT.LB.LBTESTCD">
          <CheckValue>SPGRAV</CheckValue>
        </RangeCheck>
      </def:WhereClauseDef>
      <def:WhereClauseDef OID="WC.LB.LBORRES.00020">
        <RangeCheck Comparator="IN" SoftHard="Soft" def:ItemOID="IT.LB.LBTESTCD">
          <CheckValue>ALP</CheckValue>
          <CheckValue>CHOL</CheckValue>
          <CheckValue>CK</CheckValue>
          <CheckValue>CL</CheckValue>
          <CheckValue>PLAT</CheckValue>
          <CheckValue>SODIUM</CheckValue>
          <CheckValue>VITB12</CheckValue>
        </RangeCheck>
      </def:WhereClauseDef>
      <def:WhereClauseDef OID="WC.LB.LBORRES.00021">
        <RangeCheck Comparator="IN" SoftHard="Soft" def:ItemOID="IT.LB.LBTESTCD">
          <CheckValue>HCT</CheckValue>
          <CheckValue>HGB</CheckValue>
        </RangeCheck>
      </def:WhereClauseDef>
      <def:WhereClauseDef OID="WC.LB.LBORRES.00022">
        <RangeCheck Comparator="IN" SoftHard="Soft" def:ItemOID="IT.LB.LBTESTCD">
          <CheckValue>ANISO</CheckValue>
          <CheckValue>KETONES</CheckValue>
          <CheckValue>MACROCY</CheckValue>
          <CheckValue>PH</CheckValue>
          <CheckValue>POIKILO</CheckValue>
          <CheckValue>UROBIL</CheckValue>
        </RangeCheck>
      </def:WhereClauseDef>
      <def:WhereClauseDef OID="WC.LB.LBORRES.00023">
        <RangeCheck Comparator="IN" SoftHard="Soft" def:ItemOID="IT.LB.LBTESTCD">
          <CheckValue>BASO</CheckValue>
          <CheckValue>EOS</CheckValue>
          <CheckValue>LYM</CheckValue>
          <CheckValue>MONO</CheckValue>
          <CheckValue>RBC</CheckValue>
          <CheckValue>TSH</CheckValue>
          <CheckValue>WBC</CheckValue>
        </RangeCheck>
      </def:WhereClauseDef>
      <def:WhereClauseDef OID="WC.LB.LBORRES.00024">
        <RangeCheck Comparator="IN" SoftHard="Soft" def:ItemOID="IT.LB.LBTESTCD">
          <CheckValue>ALB</CheckValue>
          <CheckValue>BILI</CheckValue>
          <CheckValue>CA</CheckValue>
          <CheckValue>CREAT</CheckValue>
          <CheckValue>K</CheckValue>
          <CheckValue>PHOS</CheckValue>
          <CheckValue>PROT</CheckValue>
          <CheckValue>URATE</CheckValue>
        </RangeCheck>
      </def:WhereClauseDef>
      <def:WhereClauseDef OID="WC.LB.LBORRES.00025">
        <RangeCheck Comparator="IN" SoftHard="Soft" def:ItemOID="IT.LB.LBTESTCD">
          <CheckValue>ALT</CheckValue>
          <CheckValue>AST</CheckValue>
          <CheckValue>GGT</CheckValue>
          <CheckValue>MCH</CheckValue>
          <CheckValue>MCHC</CheckValue>
          <CheckValue>MCV</CheckValue>
          <CheckValue>UREAN</CheckValue>
        </RangeCheck>
      </def:WhereClauseDef>
      <def:WhereClauseDef OID="WC.LB.LBORRESU.00026">
        <RangeCheck Comparator="EQ" SoftHard="Soft" def:ItemOID="IT.LB.LBTESTCD">
          <CheckValue>ALB</CheckValue>
        </RangeCheck>
      </def:WhereClauseDef>
      <def:WhereClauseDef OID="WC.LB.LBORRESU.00027">
        <RangeCheck Comparator="EQ" SoftHard="Soft" def:ItemOID="IT.LB.LBTESTCD">
          <CheckValue>ALP</CheckValue>
        </RangeCheck>
      </def:WhereClauseDef>
      <def:WhereClauseDef OID="WC.LB.LBORRESU.00028">
        <RangeCheck Comparator="EQ" SoftHard="Soft" def:ItemOID="IT.LB.LBTESTCD">
          <CheckValue>ALT</CheckValue>
        </RangeCheck>
      </def:WhereClauseDef>
      <def:WhereClauseDef OID="WC.LB.LBORRESU.00029">
        <RangeCheck Comparator="EQ" SoftHard="Soft" def:ItemOID="IT.LB.LBTESTCD">
          <CheckValue>AST</CheckValue>
        </RangeCheck>
      </def:WhereClauseDef>
      <def:WhereClauseDef OID="WC.LB.LBORRESU.00030">
        <RangeCheck Comparator="EQ" SoftHard="Soft" def:ItemOID="IT.LB.LBTESTCD">
          <CheckValue>BASO</CheckValue>
        </RangeCheck>
      </def:WhereClauseDef>
      <def:WhereClauseDef OID="WC.LB.LBORRESU.00031">
        <RangeCheck Comparator="EQ" SoftHard="Soft" def:ItemOID="IT.LB.LBTESTCD">
          <CheckValue>BILI</CheckValue>
        </RangeCheck>
      </def:WhereClauseDef>
      <def:WhereClauseDef OID="WC.LB.LBORRESU.00032">
        <RangeCheck Comparator="EQ" SoftHard="Soft" def:ItemOID="IT.LB.LBTESTCD">
          <CheckValue>CA</CheckValue>
        </RangeCheck>
      </def:WhereClauseDef>
      <def:WhereClauseDef OID="WC.LB.LBORRESU.00033">
        <RangeCheck Comparator="EQ" SoftHard="Soft" def:ItemOID="IT.LB.LBTESTCD">
          <CheckValue>CHOL</CheckValue>
        </RangeCheck>
      </def:WhereClauseDef>
      <def:WhereClauseDef OID="WC.LB.LBORRESU.00034">
        <RangeCheck Comparator="EQ" SoftHard="Soft" def:ItemOID="IT.LB.LBTESTCD">
          <CheckValue>CK</CheckValue>
        </RangeCheck>
      </def:WhereClauseDef>
      <def:WhereClauseDef OID="WC.LB.LBORRESU.00035">
        <RangeCheck Comparator="EQ" SoftHard="Soft" def:ItemOID="IT.LB.LBTESTCD">
          <CheckValue>CL</CheckValue>
        </RangeCheck>
      </def:WhereClauseDef>
      <def:WhereClauseDef OID="WC.LB.LBORRESU.00036">
        <RangeCheck Comparator="EQ" SoftHard="Soft" def:ItemOID="IT.LB.LBTESTCD">
          <CheckValue>CREAT</CheckValue>
        </RangeCheck>
      </def:WhereClauseDef>
      <def:WhereClauseDef OID="WC.LB.LBORRESU.00037">
        <RangeCheck Comparator="EQ" SoftHard="Soft" def:ItemOID="IT.LB.LBTESTCD">
          <CheckValue>EOS</CheckValue>
        </RangeCheck>
      </def:WhereClauseDef>
      <def:WhereClauseDef OID="WC.LB.LBORRESU.00038">
        <RangeCheck Comparator="EQ" SoftHard="Soft" def:ItemOID="IT.LB.LBTESTCD">
          <CheckValue>GGT</CheckValue>
        </RangeCheck>
      </def:WhereClauseDef>
      <def:WhereClauseDef OID="WC.LB.LBORRESU.00039">
        <RangeCheck Comparator="EQ" SoftHard="Soft" def:ItemOID="IT.LB.LBTESTCD">
          <CheckValue>GLUC</CheckValue>
        </RangeCheck>
      </def:WhereClauseDef>
      <def:WhereClauseDef OID="WC.LB.LBORRESU.00040">
        <RangeCheck Comparator="EQ" SoftHard="Soft" def:ItemOID="IT.LB.LBTESTCD">
          <CheckValue>HCT</CheckValue>
        </RangeCheck>
      </def:WhereClauseDef>
      <def:WhereClauseDef OID="WC.LB.LBORRESU.00041">
        <RangeCheck Comparator="EQ" SoftHard="Soft" def:ItemOID="IT.LB.LBTESTCD">
          <CheckValue>HGB</CheckValue>
        </RangeCheck>
      </def:WhereClauseDef>
      <def:WhereClauseDef OID="WC.LB.LBORRESU.00042">
        <RangeCheck Comparator="EQ" SoftHard="Soft" def:ItemOID="IT.LB.LBTESTCD">
          <CheckValue>K</CheckValue>
        </RangeCheck>
      </def:WhereClauseDef>
      <def:WhereClauseDef OID="WC.LB.LBORRESU.00043">
        <RangeCheck Comparator="EQ" SoftHard="Soft" def:ItemOID="IT.LB.LBTESTCD">
          <CheckValue>LYM</CheckValue>
        </RangeCheck>
      </def:WhereClauseDef>
      <def:WhereClauseDef OID="WC.LB.LBORRESU.00044">
        <RangeCheck Comparator="EQ" SoftHard="Soft" def:ItemOID="IT.LB.LBTESTCD">
          <CheckValue>MCH</CheckValue>
        </RangeCheck>
      </def:WhereClauseDef>
      <def:WhereClauseDef OID="WC.LB.LBORRESU.00045">
        <RangeCheck Comparator="EQ" SoftHard="Soft" def:ItemOID="IT.LB.LBTESTCD">
          <CheckValue>MCHC</CheckValue>
        </RangeCheck>
      </def:WhereClauseDef>
      <def:WhereClauseDef OID="WC.LB.LBORRESU.00046">
        <RangeCheck Comparator="EQ" SoftHard="Soft" def:ItemOID="IT.LB.LBTESTCD">
          <CheckValue>MCV</CheckValue>
        </RangeCheck>
      </def:WhereClauseDef>
      <def:WhereClauseDef OID="WC.LB.LBORRESU.00047">
        <RangeCheck Comparator="EQ" SoftHard="Soft" def:ItemOID="IT.LB.LBTESTCD">
          <CheckValue>MONO</CheckValue>
        </RangeCheck>
      </def:WhereClauseDef>
      <def:WhereClauseDef OID="WC.LB.LBORRESU.00048">
        <RangeCheck Comparator="EQ" SoftHard="Soft" def:ItemOID="IT.LB.LBTESTCD">
          <CheckValue>PHOS</CheckValue>
        </RangeCheck>
      </def:WhereClauseDef>
      <def:WhereClauseDef OID="WC.LB.LBORRESU.00049">
        <RangeCheck Comparator="EQ" SoftHard="Soft" def:ItemOID="IT.LB.LBTESTCD">
          <CheckValue>PLAT</CheckValue>
        </RangeCheck>
      </def:WhereClauseDef>
      <def:WhereClauseDef OID="WC.LB.LBORRESU.00050">
        <RangeCheck Comparator="EQ" SoftHard="Soft" def:ItemOID="IT.LB.LBTESTCD">
          <CheckValue>PROT</CheckValue>
        </RangeCheck>
      </def:WhereClauseDef>
      <def:WhereClauseDef OID="WC.LB.LBORRESU.00051">
        <RangeCheck Comparator="EQ" SoftHard="Soft" def:ItemOID="IT.LB.LBTESTCD">
          <CheckValue>RBC</CheckValue>
        </RangeCheck>
      </def:WhereClauseDef>
      <def:WhereClauseDef OID="WC.LB.LBORRESU.00052">
        <RangeCheck Comparator="EQ" SoftHard="Soft" def:ItemOID="IT.LB.LBTESTCD">
          <CheckValue>SODIUM</CheckValue>
        </RangeCheck>
      </def:WhereClauseDef>
      <def:WhereClauseDef OID="WC.LB.LBORRESU.00053">
        <RangeCheck Comparator="EQ" SoftHard="Soft" def:ItemOID="IT.LB.LBTESTCD">
          <CheckValue>TSH</CheckValue>
        </RangeCheck>
      </def:WhereClauseDef>
      <def:WhereClauseDef OID="WC.LB.LBORRESU.00054">
        <RangeCheck Comparator="EQ" SoftHard="Soft" def:ItemOID="IT.LB.LBTESTCD">
          <CheckValue>URATE</CheckValue>
        </RangeCheck>
      </def:WhereClauseDef>
      <def:WhereClauseDef OID="WC.LB.LBORRESU.00055">
        <RangeCheck Comparator="EQ" SoftHard="Soft" def:ItemOID="IT.LB.LBTESTCD">
          <CheckValue>UREAN</CheckValue>
        </RangeCheck>
      </def:WhereClauseDef>
      <def:WhereClauseDef OID="WC.LB.LBORRESU.00056">
        <RangeCheck Comparator="EQ" SoftHard="Soft" def:ItemOID="IT.LB.LBTESTCD">
          <CheckValue>VITB12</CheckValue>
        </RangeCheck>
      </def:WhereClauseDef>
      <def:WhereClauseDef OID="WC.LB.LBORRESU.00057">
        <RangeCheck Comparator="EQ" SoftHard="Soft" def:ItemOID="IT.LB.LBTESTCD">
          <CheckValue>WBC</CheckValue>
        </RangeCheck>
      </def:WhereClauseDef>
      <def:WhereClauseDef OID="WC.LB.LBSTRESC.00058">
        <RangeCheck Comparator="EQ" SoftHard="Soft" def:ItemOID="IT.LB.LBTESTCD">
          <CheckValue>BILI</CheckValue>
        </RangeCheck>
      </def:WhereClauseDef>
      <def:WhereClauseDef OID="WC.LB.LBSTRESC.00059">
        <RangeCheck Comparator="EQ" SoftHard="Soft" def:ItemOID="IT.LB.LBTESTCD">
          <CheckValue>CK</CheckValue>
        </RangeCheck>
      </def:WhereClauseDef>
      <def:WhereClauseDef OID="WC.LB.LBSTRESC.00060">
        <RangeCheck Comparator="EQ" SoftHard="Soft" def:ItemOID="IT.LB.LBTESTCD">
          <CheckValue>COLOR</CheckValue>
        </RangeCheck>
      </def:WhereClauseDef>
      <def:WhereClauseDef OID="WC.LB.LBSTRESC.00061">
        <RangeCheck Comparator="EQ" SoftHard="Soft" def:ItemOID="IT.LB.LBTESTCD">
          <CheckValue>CREAT</CheckValue>
        </RangeCheck>
      </def:WhereClauseDef>
      <def:WhereClauseDef OID="WC.LB.LBSTRESC.00062">
        <RangeCheck Comparator="EQ" SoftHard="Soft" def:ItemOID="IT.LB.LBTESTCD">
          <CheckValue>GLUC</CheckValue>
        </RangeCheck>
      </def:WhereClauseDef>
      <def:WhereClauseDef OID="WC.LB.LBSTRESC.00063">
        <RangeCheck Comparator="EQ" SoftHard="Soft" def:ItemOID="IT.LB.LBTESTCD">
          <CheckValue>HGB</CheckValue>
        </RangeCheck>
      </def:WhereClauseDef>
      <def:WhereClauseDef OID="WC.LB.LBSTRESC.00064">
        <RangeCheck Comparator="EQ" SoftHard="Soft" def:ItemOID="IT.LB.LBTESTCD">
          <CheckValue>K</CheckValue>
        </RangeCheck>
      </def:WhereClauseDef>
      <def:WhereClauseDef OID="WC.LB.LBSTRESC.00065">
        <RangeCheck Comparator="EQ" SoftHard="Soft" def:ItemOID="IT.LB.LBTESTCD">
          <CheckValue>MCHC</CheckValue>
        </RangeCheck>
      </def:WhereClauseDef>
      <def:WhereClauseDef OID="WC.LB.LBSTRESC.00066">
        <RangeCheck Comparator="EQ" SoftHard="Soft" def:ItemOID="IT.LB.LBTESTCD">
          <CheckValue>RBC</CheckValue>
        </RangeCheck>
      </def:WhereClauseDef>
      <def:WhereClauseDef OID="WC.LB.LBSTRESC.00067">
        <RangeCheck Comparator="EQ" SoftHard="Soft" def:ItemOID="IT.LB.LBTESTCD">
          <CheckValue>URATE</CheckValue>
        </RangeCheck>
      </def:WhereClauseDef>
      <def:WhereClauseDef OID="WC.LB.LBSTRESC.00068">
        <RangeCheck Comparator="EQ" SoftHard="Soft" def:ItemOID="IT.LB.LBTESTCD">
          <CheckValue>VITB12</CheckValue>
        </RangeCheck>
      </def:WhereClauseDef>
      <def:WhereClauseDef OID="WC.LB.LBSTRESC.00069">
        <RangeCheck Comparator="IN" SoftHard="Soft" def:ItemOID="IT.LB.LBTESTCD">
          <CheckValue>ALB</CheckValue>
          <CheckValue>ALT</CheckValue>
          <CheckValue>AST</CheckValue>
          <CheckValue>GGT</CheckValue>
          <CheckValue>PROT</CheckValue>
        </RangeCheck>
      </def:WhereClauseDef>
      <def:WhereClauseDef OID="WC.LB.LBSTRESC.00070">
        <RangeCheck Comparator="IN" SoftHard="Soft" def:ItemOID="IT.LB.LBTESTCD">
          <CheckValue>ALP</CheckValue>
          <CheckValue>CL</CheckValue>
          <CheckValue>MCV</CheckValue>
          <CheckValue>PLAT</CheckValue>
          <CheckValue>SODIUM</CheckValue>
        </RangeCheck>
      </def:WhereClauseDef>
      <def:WhereClauseDef OID="WC.LB.LBSTRESC.00071">
        <RangeCheck Comparator="IN" SoftHard="Soft" def:ItemOID="IT.LB.LBTESTCD">
          <CheckValue>ANISO</CheckValue>
          <CheckValue>KETONES</CheckValue>
          <CheckValue>MACROCY</CheckValue>
          <CheckValue>PH</CheckValue>
          <CheckValue>POIKILO</CheckValue>
          <CheckValue>UROBIL</CheckValue>
        </RangeCheck>
      </def:WhereClauseDef>
      <def:WhereClauseDef OID="WC.LB.LBSTRESC.00072">
        <RangeCheck Comparator="IN" SoftHard="Soft" def:ItemOID="IT.LB.LBTESTCD">
          <CheckValue>CA</CheckValue>
          <CheckValue>CHOL</CheckValue>
          <CheckValue>MCH</CheckValue>
          <CheckValue>PHOS</CheckValue>
        </RangeCheck>
      </def:WhereClauseDef>
      <def:WhereClauseDef OID="WC.LB.LBSTRESC.00073">
        <RangeCheck Comparator="IN" SoftHard="Soft" def:ItemOID="IT.LB.LBTESTCD">
          <CheckValue>BASO</CheckValue>
          <CheckValue>EOS</CheckValue>
          <CheckValue>LYM</CheckValue>
          <CheckValue>MONO</CheckValue>
          <CheckValue>RBC</CheckValue>
          <CheckValue>TSH</CheckValue>
          <CheckValue>WBC</CheckValue>
        </RangeCheck>
      </def:WhereClauseDef>
      <def:WhereClauseDef OID="WC.LB.LBSTRESC.00074">
        <RangeCheck Comparator="IN" SoftHard="Soft" def:ItemOID="IT.LB.LBTESTCD">
          <CheckValue>SPGRAV</CheckValue>
          <CheckValue>UREAN</CheckValue>
        </RangeCheck>
      </def:WhereClauseDef>
      <def:WhereClauseDef OID="WC.LB.LBSTRESU.00075">
        <RangeCheck Comparator="EQ" SoftHard="Soft" def:ItemOID="IT.LB.LBTESTCD">
          <CheckValue>ALB</CheckValue>
        </RangeCheck>
      </def:WhereClauseDef>
      <def:WhereClauseDef OID="WC.LB.LBSTRESU.00076">
        <RangeCheck Comparator="EQ" SoftHard="Soft" def:ItemOID="IT.LB.LBTESTCD">
          <CheckValue>ALP</CheckValue>
        </RangeCheck>
      </def:WhereClauseDef>
      <def:WhereClauseDef OID="WC.LB.LBSTRESU.00077">
        <RangeCheck Comparator="EQ" SoftHard="Soft" def:ItemOID="IT.LB.LBTESTCD">
          <CheckValue>ALT</CheckValue>
        </RangeCheck>
      </def:WhereClauseDef>
      <def:WhereClauseDef OID="WC.LB.LBSTRESU.00078">
        <RangeCheck Comparator="EQ" SoftHard="Soft" def:ItemOID="IT.LB.LBTESTCD">
          <CheckValue>AST</CheckValue>
        </RangeCheck>
      </def:WhereClauseDef>
      <def:WhereClauseDef OID="WC.LB.LBSTRESU.00079">
        <RangeCheck Comparator="EQ" SoftHard="Soft" def:ItemOID="IT.LB.LBTESTCD">
          <CheckValue>BASO</CheckValue>
        </RangeCheck>
      </def:WhereClauseDef>
      <def:WhereClauseDef OID="WC.LB.LBSTRESU.00080">
        <RangeCheck Comparator="EQ" SoftHard="Soft" def:ItemOID="IT.LB.LBTESTCD">
          <CheckValue>BILI</CheckValue>
        </RangeCheck>
      </def:WhereClauseDef>
      <def:WhereClauseDef OID="WC.LB.LBSTRESU.00081">
        <RangeCheck Comparator="EQ" SoftHard="Soft" def:ItemOID="IT.LB.LBTESTCD">
          <CheckValue>CA</CheckValue>
        </RangeCheck>
      </def:WhereClauseDef>
      <def:WhereClauseDef OID="WC.LB.LBSTRESU.00082">
        <RangeCheck Comparator="EQ" SoftHard="Soft" def:ItemOID="IT.LB.LBTESTCD">
          <CheckValue>CHOL</CheckValue>
        </RangeCheck>
      </def:WhereClauseDef>
      <def:WhereClauseDef OID="WC.LB.LBSTRESU.00083">
        <RangeCheck Comparator="EQ" SoftHard="Soft" def:ItemOID="IT.LB.LBTESTCD">
          <CheckValue>CK</CheckValue>
        </RangeCheck>
      </def:WhereClauseDef>
      <def:WhereClauseDef OID="WC.LB.LBSTRESU.00084">
        <RangeCheck Comparator="EQ" SoftHard="Soft" def:ItemOID="IT.LB.LBTESTCD">
          <CheckValue>CL</CheckValue>
        </RangeCheck>
      </def:WhereClauseDef>
      <def:WhereClauseDef OID="WC.LB.LBSTRESU.00085">
        <RangeCheck Comparator="EQ" SoftHard="Soft" def:ItemOID="IT.LB.LBTESTCD">
          <CheckValue>CREAT</CheckValue>
        </RangeCheck>
      </def:WhereClauseDef>
      <def:WhereClauseDef OID="WC.LB.LBSTRESU.00086">
        <RangeCheck Comparator="EQ" SoftHard="Soft" def:ItemOID="IT.LB.LBTESTCD">
          <CheckValue>EOS</CheckValue>
        </RangeCheck>
      </def:WhereClauseDef>
      <def:WhereClauseDef OID="WC.LB.LBSTRESU.00087">
        <RangeCheck Comparator="EQ" SoftHard="Soft" def:ItemOID="IT.LB.LBTESTCD">
          <CheckValue>GGT</CheckValue>
        </RangeCheck>
      </def:WhereClauseDef>
      <def:WhereClauseDef OID="WC.LB.LBSTRESU.00088">
        <RangeCheck Comparator="EQ" SoftHard="Soft" def:ItemOID="IT.LB.LBTESTCD">
          <CheckValue>GLUC</CheckValue>
        </RangeCheck>
      </def:WhereClauseDef>
      <def:WhereClauseDef OID="WC.LB.LBSTRESU.00089">
        <RangeCheck Comparator="EQ" SoftHard="Soft" def:ItemOID="IT.LB.LBTESTCD">
          <CheckValue>HGB</CheckValue>
        </RangeCheck>
      </def:WhereClauseDef>
      <def:WhereClauseDef OID="WC.LB.LBSTRESU.00090">
        <RangeCheck Comparator="EQ" SoftHard="Soft" def:ItemOID="IT.LB.LBTESTCD">
          <CheckValue>K</CheckValue>
        </RangeCheck>
      </def:WhereClauseDef>
      <def:WhereClauseDef OID="WC.LB.LBSTRESU.00091">
        <RangeCheck Comparator="EQ" SoftHard="Soft" def:ItemOID="IT.LB.LBTESTCD">
          <CheckValue>LYM</CheckValue>
        </RangeCheck>
      </def:WhereClauseDef>
      <def:WhereClauseDef OID="WC.LB.LBSTRESU.00092">
        <RangeCheck Comparator="EQ" SoftHard="Soft" def:ItemOID="IT.LB.LBTESTCD">
          <CheckValue>MCH</CheckValue>
        </RangeCheck>
      </def:WhereClauseDef>
      <def:WhereClauseDef OID="WC.LB.LBSTRESU.00093">
        <RangeCheck Comparator="EQ" SoftHard="Soft" def:ItemOID="IT.LB.LBTESTCD">
          <CheckValue>MCHC</CheckValue>
        </RangeCheck>
      </def:WhereClauseDef>
      <def:WhereClauseDef OID="WC.LB.LBSTRESU.00094">
        <RangeCheck Comparator="EQ" SoftHard="Soft" def:ItemOID="IT.LB.LBTESTCD">
          <CheckValue>MCV</CheckValue>
        </RangeCheck>
      </def:WhereClauseDef>
      <def:WhereClauseDef OID="WC.LB.LBSTRESU.00095">
        <RangeCheck Comparator="EQ" SoftHard="Soft" def:ItemOID="IT.LB.LBTESTCD">
          <CheckValue>MONO</CheckValue>
        </RangeCheck>
      </def:WhereClauseDef>
      <def:WhereClauseDef OID="WC.LB.LBSTRESU.00096">
        <RangeCheck Comparator="EQ" SoftHard="Soft" def:ItemOID="IT.LB.LBTESTCD">
          <CheckValue>PHOS</CheckValue>
        </RangeCheck>
      </def:WhereClauseDef>
      <def:WhereClauseDef OID="WC.LB.LBSTRESU.00097">
        <RangeCheck Comparator="EQ" SoftHard="Soft" def:ItemOID="IT.LB.LBTESTCD">
          <CheckValue>PLAT</CheckValue>
        </RangeCheck>
      </def:WhereClauseDef>
      <def:WhereClauseDef OID="WC.LB.LBSTRESU.00098">
        <RangeCheck Comparator="EQ" SoftHard="Soft" def:ItemOID="IT.LB.LBTESTCD">
          <CheckValue>PROT</CheckValue>
        </RangeCheck>
      </def:WhereClauseDef>
      <def:WhereClauseDef OID="WC.LB.LBSTRESU.00099">
        <RangeCheck Comparator="EQ" SoftHard="Soft" def:ItemOID="IT.LB.LBTESTCD">
          <CheckValue>RBC</CheckValue>
        </RangeCheck>
      </def:WhereClauseDef>
      <def:WhereClauseDef OID="WC.LB.LBSTRESU.00100">
        <RangeCheck Comparator="EQ" SoftHard="Soft" def:ItemOID="IT.LB.LBTESTCD">
          <CheckValue>SODIUM</CheckValue>
        </RangeCheck>
      </def:WhereClauseDef>
      <def:WhereClauseDef OID="WC.LB.LBSTRESU.00101">
        <RangeCheck Comparator="EQ" SoftHard="Soft" def:ItemOID="IT.LB.LBTESTCD">
          <CheckValue>TSH</CheckValue>
        </RangeCheck>
      </def:WhereClauseDef>
      <def:WhereClauseDef OID="WC.LB.LBSTRESU.00102">
        <RangeCheck Comparator="EQ" SoftHard="Soft" def:ItemOID="IT.LB.LBTESTCD">
          <CheckValue>URATE</CheckValue>
        </RangeCheck>
      </def:WhereClauseDef>
      <def:WhereClauseDef OID="WC.LB.LBSTRESU.00103">
        <RangeCheck Comparator="EQ" SoftHard="Soft" def:ItemOID="IT.LB.LBTESTCD">
          <CheckValue>UREAN</CheckValue>
        </RangeCheck>
      </def:WhereClauseDef>
      <def:WhereClauseDef OID="WC.LB.LBSTRESU.00104">
        <RangeCheck Comparator="EQ" SoftHard="Soft" def:ItemOID="IT.LB.LBTESTCD">
          <CheckValue>VITB12</CheckValue>
        </RangeCheck>
      </def:WhereClauseDef>
      <def:WhereClauseDef OID="WC.LB.LBSTRESU.00105">
        <RangeCheck Comparator="EQ" SoftHard="Soft" def:ItemOID="IT.LB.LBTESTCD">
          <CheckValue>WBC</CheckValue>
        </RangeCheck>
      </def:WhereClauseDef>
      <def:WhereClauseDef OID="WC.OE.OEORRES.00106">
        <RangeCheck Comparator="EQ" SoftHard="Soft" def:ItemOID="IT.OE.OETESTCD">
          <CheckValue>ABDETAIL</CheckValue>
        </RangeCheck>
      </def:WhereClauseDef>
      <def:WhereClauseDef OID="WC.OE.OEORRES.00107">
        <RangeCheck Comparator="EQ" SoftHard="Soft" def:ItemOID="IT.OE.OETESTCD">
          <CheckValue>INTP</CheckValue>
        </RangeCheck>
      </def:WhereClauseDef>
      <def:WhereClauseDef OID="WC.QSPH.QSORRES.00108">
        <RangeCheck Comparator="EQ" SoftHard="Soft" def:ItemOID="IT.QSPH.QSTESTCD">
          <CheckValue>PHQ0110</CheckValue>
        </RangeCheck>
      </def:WhereClauseDef>
      <def:WhereClauseDef OID="WC.QSPH.QSORRES.00109">
        <RangeCheck Comparator="EQ" SoftHard="Soft" def:ItemOID="IT.QSPH.QSTESTCD">
          <CheckValue>PHQ0111</CheckValue>
        </RangeCheck>
      </def:WhereClauseDef>
      <def:WhereClauseDef OID="WC.QSPH.QSORRES.00110">
        <RangeCheck Comparator="IN" SoftHard="Soft" def:ItemOID="IT.QSPH.QSTESTCD">
          <CheckValue>PHQ0101</CheckValue>
          <CheckValue>PHQ0102</CheckValue>
          <CheckValue>PHQ0103</CheckValue>
          <CheckValue>PHQ0104</CheckValue>
          <CheckValue>PHQ0105</CheckValue>
          <CheckValue>PHQ0106</CheckValue>
          <CheckValue>PHQ0107</CheckValue>
          <CheckValue>PHQ0108</CheckValue>
          <CheckValue>PHQ0109</CheckValue>
        </RangeCheck>
      </def:WhereClauseDef>
      <def:WhereClauseDef OID="WC.QSPH.QSSTRESC.00111">
        <RangeCheck Comparator="EQ" SoftHard="Soft" def:ItemOID="IT.QSPH.QSTESTCD">
          <CheckValue>PHQ0110</CheckValue>
        </RangeCheck>
      </def:WhereClauseDef>
      <def:WhereClauseDef OID="WC.QSPH.QSSTRESC.00112">
        <RangeCheck Comparator="EQ" SoftHard="Soft" def:ItemOID="IT.QSPH.QSTESTCD">
          <CheckValue>PHQ0111</CheckValue>
        </RangeCheck>
      </def:WhereClauseDef>
      <def:WhereClauseDef OID="WC.QSPH.QSSTRESC.00113">
        <RangeCheck Comparator="IN" SoftHard="Soft" def:ItemOID="IT.QSPH.QSTESTCD">
          <CheckValue>PHQ0101</CheckValue>
          <CheckValue>PHQ0102</CheckValue>
          <CheckValue>PHQ0103</CheckValue>
          <CheckValue>PHQ0104</CheckValue>
          <CheckValue>PHQ0105</CheckValue>
          <CheckValue>PHQ0106</CheckValue>
          <CheckValue>PHQ0107</CheckValue>
          <CheckValue>PHQ0108</CheckValue>
          <CheckValue>PHQ0109</CheckValue>
        </RangeCheck>
      </def:WhereClauseDef>
      <def:WhereClauseDef OID="WC.RS.RSORRES.00114">
        <RangeCheck Comparator="EQ" SoftHard="Soft" def:ItemOID="IT.RS.RSTESTCD">
          <CheckValue>HAMD101</CheckValue>
        </RangeCheck>
      </def:WhereClauseDef>
      <def:WhereClauseDef OID="WC.RS.RSORRES.00115">
        <RangeCheck Comparator="EQ" SoftHard="Soft" def:ItemOID="IT.RS.RSTESTCD">
          <CheckValue>HAMD102</CheckValue>
        </RangeCheck>
      </def:WhereClauseDef>
      <def:WhereClauseDef OID="WC.RS.RSORRES.00116">
        <RangeCheck Comparator="EQ" SoftHard="Soft" def:ItemOID="IT.RS.RSTESTCD">
          <CheckValue>HAMD103</CheckValue>
        </RangeCheck>
      </def:WhereClauseDef>
      <def:WhereClauseDef OID="WC.RS.RSORRES.00117">
        <RangeCheck Comparator="EQ" SoftHard="Soft" def:ItemOID="IT.RS.RSTESTCD">
          <CheckValue>HAMD104</CheckValue>
        </RangeCheck>
      </def:WhereClauseDef>
      <def:WhereClauseDef OID="WC.RS.RSORRES.00118">
        <RangeCheck Comparator="EQ" SoftHard="Soft" def:ItemOID="IT.RS.RSTESTCD">
          <CheckValue>HAMD105</CheckValue>
        </RangeCheck>
      </def:WhereClauseDef>
      <def:WhereClauseDef OID="WC.RS.RSORRES.00119">
        <RangeCheck Comparator="EQ" SoftHard="Soft" def:ItemOID="IT.RS.RSTESTCD">
          <CheckValue>HAMD106</CheckValue>
        </RangeCheck>
      </def:WhereClauseDef>
      <def:WhereClauseDef OID="WC.RS.RSORRES.00120">
        <RangeCheck Comparator="EQ" SoftHard="Soft" def:ItemOID="IT.RS.RSTESTCD">
          <CheckValue>HAMD107</CheckValue>
        </RangeCheck>
      </def:WhereClauseDef>
      <def:WhereClauseDef OID="WC.RS.RSORRES.00121">
        <RangeCheck Comparator="EQ" SoftHard="Soft" def:ItemOID="IT.RS.RSTESTCD">
          <CheckValue>HAMD108</CheckValue>
        </RangeCheck>
      </def:WhereClauseDef>
      <def:WhereClauseDef OID="WC.RS.RSORRES.00122">
        <RangeCheck Comparator="EQ" SoftHard="Soft" def:ItemOID="IT.RS.RSTESTCD">
          <CheckValue>HAMD109</CheckValue>
        </RangeCheck>
      </def:WhereClauseDef>
      <def:WhereClauseDef OID="WC.RS.RSORRES.00123">
        <RangeCheck Comparator="EQ" SoftHard="Soft" def:ItemOID="IT.RS.RSTESTCD">
          <CheckValue>HAMD110</CheckValue>
        </RangeCheck>
      </def:WhereClauseDef>
      <def:WhereClauseDef OID="WC.RS.RSORRES.00124">
        <RangeCheck Comparator="EQ" SoftHard="Soft" def:ItemOID="IT.RS.RSTESTCD">
          <CheckValue>HAMD111</CheckValue>
        </RangeCheck>
      </def:WhereClauseDef>
      <def:WhereClauseDef OID="WC.RS.RSORRES.00125">
        <RangeCheck Comparator="EQ" SoftHard="Soft" def:ItemOID="IT.RS.RSTESTCD">
          <CheckValue>HAMD112</CheckValue>
        </RangeCheck>
      </def:WhereClauseDef>
      <def:WhereClauseDef OID="WC.RS.RSORRES.00126">
        <RangeCheck Comparator="EQ" SoftHard="Soft" def:ItemOID="IT.RS.RSTESTCD">
          <CheckValue>HAMD113</CheckValue>
        </RangeCheck>
      </def:WhereClauseDef>
      <def:WhereClauseDef OID="WC.RS.RSORRES.00127">
        <RangeCheck Comparator="EQ" SoftHard="Soft" def:ItemOID="IT.RS.RSTESTCD">
          <CheckValue>HAMD114</CheckValue>
        </RangeCheck>
      </def:WhereClauseDef>
      <def:WhereClauseDef OID="WC.RS.RSORRES.00128">
        <RangeCheck Comparator="EQ" SoftHard="Soft" def:ItemOID="IT.RS.RSTESTCD">
          <CheckValue>HAMD115</CheckValue>
        </RangeCheck>
      </def:WhereClauseDef>
      <def:WhereClauseDef OID="WC.RS.RSORRES.00129">
        <RangeCheck Comparator="EQ" SoftHard="Soft" def:ItemOID="IT.RS.RSTESTCD">
          <CheckValue>HAMD116A</CheckValue>
        </RangeCheck>
      </def:WhereClauseDef>
      <def:WhereClauseDef OID="WC.RS.RSORRES.00130">
        <RangeCheck Comparator="EQ" SoftHard="Soft" def:ItemOID="IT.RS.RSTESTCD">
          <CheckValue>HAMD116B</CheckValue>
        </RangeCheck>
      </def:WhereClauseDef>
      <def:WhereClauseDef OID="WC.RS.RSORRES.00131">
        <RangeCheck Comparator="EQ" SoftHard="Soft" def:ItemOID="IT.RS.RSTESTCD">
          <CheckValue>HAMD117</CheckValue>
        </RangeCheck>
      </def:WhereClauseDef>
      <def:WhereClauseDef OID="WC.RS.RSORRES.00132">
        <RangeCheck Comparator="EQ" SoftHard="Soft" def:ItemOID="IT.RS.RSTESTCD">
          <CheckValue>HAMD118</CheckValue>
        </RangeCheck>
      </def:WhereClauseDef>
      <def:WhereClauseDef OID="WC.RS.RSSTRESC.00133">
        <RangeCheck Comparator="EQ" SoftHard="Soft" def:ItemOID="IT.RS.RSTESTCD">
          <CheckValue>HAMD101</CheckValue>
        </RangeCheck>
      </def:WhereClauseDef>
      <def:WhereClauseDef OID="WC.RS.RSSTRESC.00134">
        <RangeCheck Comparator="EQ" SoftHard="Soft" def:ItemOID="IT.RS.RSTESTCD">
          <CheckValue>HAMD102</CheckValue>
        </RangeCheck>
      </def:WhereClauseDef>
      <def:WhereClauseDef OID="WC.RS.RSSTRESC.00135">
        <RangeCheck Comparator="EQ" SoftHard="Soft" def:ItemOID="IT.RS.RSTESTCD">
          <CheckValue>HAMD103</CheckValue>
        </RangeCheck>
      </def:WhereClauseDef>
      <def:WhereClauseDef OID="WC.RS.RSSTRESC.00136">
        <RangeCheck Comparator="EQ" SoftHard="Soft" def:ItemOID="IT.RS.RSTESTCD">
          <CheckValue>HAMD104</CheckValue>
        </RangeCheck>
      </def:WhereClauseDef>
      <def:WhereClauseDef OID="WC.RS.RSSTRESC.00137">
        <RangeCheck Comparator="EQ" SoftHard="Soft" def:ItemOID="IT.RS.RSTESTCD">
          <CheckValue>HAMD105</CheckValue>
        </RangeCheck>
      </def:WhereClauseDef>
      <def:WhereClauseDef OID="WC.RS.RSSTRESC.00138">
        <RangeCheck Comparator="EQ" SoftHard="Soft" def:ItemOID="IT.RS.RSTESTCD">
          <CheckValue>HAMD106</CheckValue>
        </RangeCheck>
      </def:WhereClauseDef>
      <def:WhereClauseDef OID="WC.RS.RSSTRESC.00139">
        <RangeCheck Comparator="EQ" SoftHard="Soft" def:ItemOID="IT.RS.RSTESTCD">
          <CheckValue>HAMD107</CheckValue>
        </RangeCheck>
      </def:WhereClauseDef>
      <def:WhereClauseDef OID="WC.RS.RSSTRESC.00140">
        <RangeCheck Comparator="EQ" SoftHard="Soft" def:ItemOID="IT.RS.RSTESTCD">
          <CheckValue>HAMD108</CheckValue>
        </RangeCheck>
      </def:WhereClauseDef>
      <def:WhereClauseDef OID="WC.RS.RSSTRESC.00141">
        <RangeCheck Comparator="EQ" SoftHard="Soft" def:ItemOID="IT.RS.RSTESTCD">
          <CheckValue>HAMD109</CheckValue>
        </RangeCheck>
      </def:WhereClauseDef>
      <def:WhereClauseDef OID="WC.RS.RSSTRESC.00142">
        <RangeCheck Comparator="EQ" SoftHard="Soft" def:ItemOID="IT.RS.RSTESTCD">
          <CheckValue>HAMD110</CheckValue>
        </RangeCheck>
      </def:WhereClauseDef>
      <def:WhereClauseDef OID="WC.RS.RSSTRESC.00143">
        <RangeCheck Comparator="EQ" SoftHard="Soft" def:ItemOID="IT.RS.RSTESTCD">
          <CheckValue>HAMD111</CheckValue>
        </RangeCheck>
      </def:WhereClauseDef>
      <def:WhereClauseDef OID="WC.RS.RSSTRESC.00144">
        <RangeCheck Comparator="EQ" SoftHard="Soft" def:ItemOID="IT.RS.RSTESTCD">
          <CheckValue>HAMD112</CheckValue>
        </RangeCheck>
      </def:WhereClauseDef>
      <def:WhereClauseDef OID="WC.RS.RSSTRESC.00145">
        <RangeCheck Comparator="EQ" SoftHard="Soft" def:ItemOID="IT.RS.RSTESTCD">
          <CheckValue>HAMD113</CheckValue>
        </RangeCheck>
      </def:WhereClauseDef>
      <def:WhereClauseDef OID="WC.RS.RSSTRESC.00146">
        <RangeCheck Comparator="EQ" SoftHard="Soft" def:ItemOID="IT.RS.RSTESTCD">
          <CheckValue>HAMD114</CheckValue>
        </RangeCheck>
      </def:WhereClauseDef>
      <def:WhereClauseDef OID="WC.RS.RSSTRESC.00147">
        <RangeCheck Comparator="EQ" SoftHard="Soft" def:ItemOID="IT.RS.RSTESTCD">
          <CheckValue>HAMD115</CheckValue>
        </RangeCheck>
      </def:WhereClauseDef>
      <def:WhereClauseDef OID="WC.RS.RSSTRESC.00148">
        <RangeCheck Comparator="EQ" SoftHard="Soft" def:ItemOID="IT.RS.RSTESTCD">
          <CheckValue>HAMD116A</CheckValue>
        </RangeCheck>
      </def:WhereClauseDef>
      <def:WhereClauseDef OID="WC.RS.RSSTRESC.00149">
        <RangeCheck Comparator="EQ" SoftHard="Soft" def:ItemOID="IT.RS.RSTESTCD">
          <CheckValue>HAMD116B</CheckValue>
        </RangeCheck>
      </def:WhereClauseDef>
      <def:WhereClauseDef OID="WC.RS.RSSTRESC.00150">
        <RangeCheck Comparator="EQ" SoftHard="Soft" def:ItemOID="IT.RS.RSTESTCD">
          <CheckValue>HAMD117</CheckValue>
        </RangeCheck>
      </def:WhereClauseDef>
      <def:WhereClauseDef OID="WC.RS.RSSTRESC.00151">
        <RangeCheck Comparator="EQ" SoftHard="Soft" def:ItemOID="IT.RS.RSTESTCD">
          <CheckValue>HAMD118</CheckValue>
        </RangeCheck>
      </def:WhereClauseDef>
      <def:WhereClauseDef OID="WC.SUPPDM.QVAL.00152">
        <RangeCheck Comparator="EQ" SoftHard="Soft" def:ItemOID="IT.SUPPDM.QNAM">
          <CheckValue>RACE1</CheckValue>
        </RangeCheck>
      </def:WhereClauseDef>
      <def:WhereClauseDef OID="WC.SUPPDM.QVAL.00153">
        <RangeCheck Comparator="EQ" SoftHard="Soft" def:ItemOID="IT.SUPPDM.QNAM">
          <CheckValue>RACE2</CheckValue>
        </RangeCheck>
      </def:WhereClauseDef>
      <def:WhereClauseDef OID="WC.SUPPDM.QVAL.00154">
        <RangeCheck Comparator="EQ" SoftHard="Soft" def:ItemOID="IT.SUPPDM.QNAM">
          <CheckValue>RACE3</CheckValue>
        </RangeCheck>
      </def:WhereClauseDef>
      <def:WhereClauseDef OID="WC.SUPPDM.QVAL.00155">
        <RangeCheck Comparator="EQ" SoftHard="Soft" def:ItemOID="IT.SUPPDM.QNAM">
          <CheckValue>RACE4</CheckValue>
        </RangeCheck>
      </def:WhereClauseDef>
      <def:WhereClauseDef OID="WC.SUPPDM.QVAL.00156">
        <RangeCheck Comparator="EQ" SoftHard="Soft" def:ItemOID="IT.SUPPDM.QNAM">
          <CheckValue>RACE5</CheckValue>
        </RangeCheck>
      </def:WhereClauseDef>
      <def:WhereClauseDef OID="WC.SUPPEC.QVAL.00157">
        <RangeCheck Comparator="EQ" SoftHard="Soft" def:ItemOID="IT.SUPPEC.QNAM">
          <CheckValue>ECREASOC</CheckValue>
        </RangeCheck>
      </def:WhereClauseDef>
      <def:WhereClauseDef OID="WC.SUPPNV.QVAL.00158" def:CommentOID="COM.SUPPNV.QVAL.WC.WC.SUPPNV.QVAL.00158">
        <RangeCheck Comparator="EQ" SoftHard="Soft" def:ItemOID="IT.SUPPNV.QNAM">
          <CheckValue>NVCLSIG</CheckValue>
        </RangeCheck>
      </def:WhereClauseDef>
      <def:WhereClauseDef OID="WC.SUPPOE.QVAL.00159">
        <RangeCheck Comparator="EQ" SoftHard="Soft" def:ItemOID="IT.SUPPOE.QNAM">
          <CheckValue>OECLSIG</CheckValue>
        </RangeCheck>
      </def:WhereClauseDef>
      <def:WhereClauseDef OID="WC.TS.TSVAL.00160">
        <RangeCheck Comparator="EQ" SoftHard="Soft" def:ItemOID="IT.TS.TSPARMCD">
          <CheckValue>DOSFRM</CheckValue>
        </RangeCheck>
      </def:WhereClauseDef>
      <def:WhereClauseDef OID="WC.TS.TSVAL.00161">
        <RangeCheck Comparator="EQ" SoftHard="Soft" def:ItemOID="IT.TS.TSPARMCD">
          <CheckValue>DOSFRQ</CheckValue>
        </RangeCheck>
      </def:WhereClauseDef>
      <def:WhereClauseDef OID="WC.TS.TSVAL.00162">
        <RangeCheck Comparator="EQ" SoftHard="Soft" def:ItemOID="IT.TS.TSPARMCD">
          <CheckValue>DOSU</CheckValue>
        </RangeCheck>
      </def:WhereClauseDef>
      <def:WhereClauseDef OID="WC.TS.TSVAL.00163">
        <RangeCheck Comparator="EQ" SoftHard="Soft" def:ItemOID="IT.TS.TSPARMCD">
          <CheckValue>FCNTRY</CheckValue>
        </RangeCheck>
      </def:WhereClauseDef>
      <def:WhereClauseDef OID="WC.TS.TSVAL.00164">
        <RangeCheck Comparator="EQ" SoftHard="Soft" def:ItemOID="IT.TS.TSPARMCD">
          <CheckValue>INDIC</CheckValue>
        </RangeCheck>
      </def:WhereClauseDef>
      <def:WhereClauseDef OID="WC.TS.TSVAL.00165">
        <RangeCheck Comparator="EQ" SoftHard="Soft" def:ItemOID="IT.TS.TSPARMCD">
          <CheckValue>INTMODEL</CheckValue>
        </RangeCheck>
      </def:WhereClauseDef>
      <def:WhereClauseDef OID="WC.TS.TSVAL.00166">
        <RangeCheck Comparator="EQ" SoftHard="Soft" def:ItemOID="IT.TS.TSPARMCD">
          <CheckValue>INTTYPE</CheckValue>
        </RangeCheck>
      </def:WhereClauseDef>
      <def:WhereClauseDef OID="WC.TS.TSVAL.00167">
        <RangeCheck Comparator="EQ" SoftHard="Soft" def:ItemOID="IT.TS.TSPARMCD">
          <CheckValue>OBJPRIM</CheckValue>
        </RangeCheck>
      </def:WhereClauseDef>
      <def:WhereClauseDef OID="WC.TS.TSVAL.00168">
        <RangeCheck Comparator="EQ" SoftHard="Soft" def:ItemOID="IT.TS.TSPARMCD">
          <CheckValue>OBJSEC</CheckValue>
        </RangeCheck>
      </def:WhereClauseDef>
      <def:WhereClauseDef OID="WC.TS.TSVAL.00169">
        <RangeCheck Comparator="EQ" SoftHard="Soft" def:ItemOID="IT.TS.TSPARMCD">
          <CheckValue>OUTMSPRI</CheckValue>
        </RangeCheck>
      </def:WhereClauseDef>
      <def:WhereClauseDef OID="WC.TS.TSVAL.00170">
        <RangeCheck Comparator="EQ" SoftHard="Soft" def:ItemOID="IT.TS.TSPARMCD">
          <CheckValue>PCLAS</CheckValue>
        </RangeCheck>
      </def:WhereClauseDef>
      <def:WhereClauseDef OID="WC.TS.TSVAL.00171">
        <RangeCheck Comparator="EQ" SoftHard="Soft" def:ItemOID="IT.TS.TSPARMCD">
          <CheckValue>REGID</CheckValue>
        </RangeCheck>
      </def:WhereClauseDef>
      <def:WhereClauseDef OID="WC.TS.TSVAL.00172">
        <RangeCheck Comparator="EQ" SoftHard="Soft" def:ItemOID="IT.TS.TSPARMCD">
          <CheckValue>ROUTE</CheckValue>
        </RangeCheck>
      </def:WhereClauseDef>
      <def:WhereClauseDef OID="WC.TS.TSVAL.00173">
        <RangeCheck Comparator="EQ" SoftHard="Soft" def:ItemOID="IT.TS.TSPARMCD">
          <CheckValue>SEXPOP</CheckValue>
        </RangeCheck>
      </def:WhereClauseDef>
      <def:WhereClauseDef OID="WC.TS.TSVAL.00174">
        <RangeCheck Comparator="EQ" SoftHard="Soft" def:ItemOID="IT.TS.TSPARMCD">
          <CheckValue>SPONSOR</CheckValue>
        </RangeCheck>
      </def:WhereClauseDef>
      <def:WhereClauseDef OID="WC.TS.TSVAL.00175">
        <RangeCheck Comparator="EQ" SoftHard="Soft" def:ItemOID="IT.TS.TSPARMCD">
          <CheckValue>STOPRULE</CheckValue>
        </RangeCheck>
      </def:WhereClauseDef>
      <def:WhereClauseDef OID="WC.TS.TSVAL.00176">
        <RangeCheck Comparator="EQ" SoftHard="Soft" def:ItemOID="IT.TS.TSPARMCD">
          <CheckValue>STYPE</CheckValue>
        </RangeCheck>
      </def:WhereClauseDef>
      <def:WhereClauseDef OID="WC.TS.TSVAL.00177">
        <RangeCheck Comparator="EQ" SoftHard="Soft" def:ItemOID="IT.TS.TSPARMCD">
          <CheckValue>TBLIND</CheckValue>
        </RangeCheck>
      </def:WhereClauseDef>
      <def:WhereClauseDef OID="WC.TS.TSVAL.00178">
        <RangeCheck Comparator="EQ" SoftHard="Soft" def:ItemOID="IT.TS.TSPARMCD">
          <CheckValue>TCNTRL</CheckValue>
        </RangeCheck>
      </def:WhereClauseDef>
      <def:WhereClauseDef OID="WC.TS.TSVAL.00179">
        <RangeCheck Comparator="EQ" SoftHard="Soft" def:ItemOID="IT.TS.TSPARMCD">
          <CheckValue>TDIGRP</CheckValue>
        </RangeCheck>
      </def:WhereClauseDef>
      <def:WhereClauseDef OID="WC.TS.TSVAL.00180">
        <RangeCheck Comparator="EQ" SoftHard="Soft" def:ItemOID="IT.TS.TSPARMCD">
          <CheckValue>TINDTP</CheckValue>
        </RangeCheck>
      </def:WhereClauseDef>
      <def:WhereClauseDef OID="WC.TS.TSVAL.00181">
        <RangeCheck Comparator="EQ" SoftHard="Soft" def:ItemOID="IT.TS.TSPARMCD">
          <CheckValue>TITLE</CheckValue>
        </RangeCheck>
      </def:WhereClauseDef>
      <def:WhereClauseDef OID="WC.TS.TSVAL.00182">
        <RangeCheck Comparator="EQ" SoftHard="Soft" def:ItemOID="IT.TS.TSPARMCD">
          <CheckValue>TPHASE</CheckValue>
        </RangeCheck>
      </def:WhereClauseDef>
      <def:WhereClauseDef OID="WC.TS.TSVAL.00183">
        <RangeCheck Comparator="EQ" SoftHard="Soft" def:ItemOID="IT.TS.TSPARMCD">
          <CheckValue>TRT</CheckValue>
        </RangeCheck>
      </def:WhereClauseDef>
      <def:WhereClauseDef OID="WC.TS.TSVAL.00184">
        <RangeCheck Comparator="EQ" SoftHard="Soft" def:ItemOID="IT.TS.TSPARMCD">
          <CheckValue>TS_DURATION</CheckValue>
        </RangeCheck>
      </def:WhereClauseDef>
      <def:WhereClauseDef OID="WC.TS.TSVAL.00185">
        <RangeCheck Comparator="EQ" SoftHard="Soft" def:ItemOID="IT.TS.TSPARMCD">
          <CheckValue>TS_FLOAT</CheckValue>
        </RangeCheck>
      </def:WhereClauseDef>
      <def:WhereClauseDef OID="WC.TS.TSVAL.00186">
        <RangeCheck Comparator="EQ" SoftHard="Soft" def:ItemOID="IT.TS.TSPARMCD">
          <CheckValue>TTYPE</CheckValue>
        </RangeCheck>
      </def:WhereClauseDef>
      <def:WhereClauseDef OID="WC.TS.TSVAL.00187">
        <RangeCheck Comparator="IN" SoftHard="Soft" def:ItemOID="IT.TS.TSPARMCD">
          <CheckValue>ADAPT</CheckValue>
          <CheckValue>ADDON</CheckValue>
          <CheckValue>HLTSUBJI</CheckValue>
          <CheckValue>RANDOM</CheckValue>
        </RangeCheck>
      </def:WhereClauseDef>
      <def:WhereClauseDef OID="WC.TS.TSVAL.00188">
        <RangeCheck Comparator="IN" SoftHard="Soft" def:ItemOID="IT.TS.TSPARMCD">
          <CheckValue>ACTSUB</CheckValue>
          <CheckValue>AGEMAX</CheckValue>
          <CheckValue>AGEMIN</CheckValue>
          <CheckValue>DOSE</CheckValue>
          <CheckValue>NARMS</CheckValue>
          <CheckValue>PLANSUB</CheckValue>
        </RangeCheck>
      </def:WhereClauseDef>
      <def:WhereClauseDef OID="WC.TS.TSVAL.00189">
        <RangeCheck Comparator="IN" SoftHard="Soft" def:ItemOID="IT.TS.TSPARMCD">
          <CheckValue>SDTIGVER</CheckValue>
          <CheckValue>SDTMVER</CheckValue>
        </RangeCheck>
      </def:WhereClauseDef>
      <def:WhereClauseDef OID="WC.TS.TSVAL.00190">
        <RangeCheck Comparator="IN" SoftHard="Soft" def:ItemOID="IT.TS.TSPARMCD">
          <CheckValue>DCUTDTC</CheckValue>
          <CheckValue>SENDTC</CheckValue>
          <CheckValue>SSTDTC</CheckValue>
        </RangeCheck>
      </def:WhereClauseDef>
      <def:WhereClauseDef OID="WC.VS.VSORRES.00191">
        <RangeCheck Comparator="EQ" SoftHard="Soft" def:ItemOID="IT.VS.VSTESTCD">
          <CheckValue>HEIGHT</CheckValue>
        </RangeCheck>
      </def:WhereClauseDef>
      <def:WhereClauseDef OID="WC.VS.VSORRES.00192">
        <RangeCheck Comparator="EQ" SoftHard="Soft" def:ItemOID="IT.VS.VSTESTCD">
          <CheckValue>PULSE</CheckValue>
        </RangeCheck>
      </def:WhereClauseDef>
      <def:WhereClauseDef OID="WC.VS.VSORRES.00193">
        <RangeCheck Comparator="EQ" SoftHard="Soft" def:ItemOID="IT.VS.VSTESTCD">
          <CheckValue>TEMP</CheckValue>
        </RangeCheck>
      </def:WhereClauseDef>
      <def:WhereClauseDef OID="WC.VS.VSORRES.00194">
        <RangeCheck Comparator="EQ" SoftHard="Soft" def:ItemOID="IT.VS.VSTESTCD">
          <CheckValue>WEIGHT</CheckValue>
        </RangeCheck>
      </def:WhereClauseDef>
      <def:WhereClauseDef OID="WC.VS.VSORRES.00195">
        <RangeCheck Comparator="IN" SoftHard="Soft" def:ItemOID="IT.VS.VSTESTCD">
          <CheckValue>DIABP</CheckValue>
          <CheckValue>SYSBP</CheckValue>
        </RangeCheck>
      </def:WhereClauseDef>
      <def:WhereClauseDef OID="WC.VS.VSORRESU.00196">
        <RangeCheck Comparator="EQ" SoftHard="Soft" def:ItemOID="IT.VS.VSTESTCD">
          <CheckValue>HEIGHT</CheckValue>
        </RangeCheck>
      </def:WhereClauseDef>
      <def:WhereClauseDef OID="WC.VS.VSORRESU.00197">
        <RangeCheck Comparator="EQ" SoftHard="Soft" def:ItemOID="IT.VS.VSTESTCD">
          <CheckValue>PULSE</CheckValue>
        </RangeCheck>
      </def:WhereClauseDef>
      <def:WhereClauseDef OID="WC.VS.VSORRESU.00198">
        <RangeCheck Comparator="EQ" SoftHard="Soft" def:ItemOID="IT.VS.VSTESTCD">
          <CheckValue>TEMP</CheckValue>
        </RangeCheck>
      </def:WhereClauseDef>
      <def:WhereClauseDef OID="WC.VS.VSORRESU.00199">
        <RangeCheck Comparator="EQ" SoftHard="Soft" def:ItemOID="IT.VS.VSTESTCD">
          <CheckValue>WEIGHT</CheckValue>
        </RangeCheck>
      </def:WhereClauseDef>
      <def:WhereClauseDef OID="WC.VS.VSORRESU.00200">
        <RangeCheck Comparator="IN" SoftHard="Soft" def:ItemOID="IT.VS.VSTESTCD">
          <CheckValue>DIABP</CheckValue>
          <CheckValue>SYSBP</CheckValue>
        </RangeCheck>
      </def:WhereClauseDef>
      <def:WhereClauseDef OID="WC.VS.VSSTRESN.00201">
        <RangeCheck Comparator="EQ" SoftHard="Soft" def:ItemOID="IT.VS.VSTESTCD">
          <CheckValue>BMI</CheckValue>
        </RangeCheck>
      </def:WhereClauseDef>
      <def:WhereClauseDef OID="WC.VS.VSSTRESN.00202">
        <RangeCheck Comparator="EQ" SoftHard="Soft" def:ItemOID="IT.VS.VSTESTCD">
          <CheckValue>HEIGHT</CheckValue>
        </RangeCheck>
      </def:WhereClauseDef>
      <def:WhereClauseDef OID="WC.VS.VSSTRESN.00203">
        <RangeCheck Comparator="EQ" SoftHard="Soft" def:ItemOID="IT.VS.VSTESTCD">
          <CheckValue>PULSE</CheckValue>
        </RangeCheck>
      </def:WhereClauseDef>
      <def:WhereClauseDef OID="WC.VS.VSSTRESN.00204">
        <RangeCheck Comparator="EQ" SoftHard="Soft" def:ItemOID="IT.VS.VSTESTCD">
          <CheckValue>TEMP</CheckValue>
        </RangeCheck>
      </def:WhereClauseDef>
      <def:WhereClauseDef OID="WC.VS.VSSTRESN.00205">
        <RangeCheck Comparator="EQ" SoftHard="Soft" def:ItemOID="IT.VS.VSTESTCD">
          <CheckValue>WEIGHT</CheckValue>
        </RangeCheck>
      </def:WhereClauseDef>
      <def:WhereClauseDef OID="WC.VS.VSSTRESN.00206">
        <RangeCheck Comparator="IN" SoftHard="Soft" def:ItemOID="IT.VS.VSTESTCD">
          <CheckValue>DIABP</CheckValue>
          <CheckValue>SYSBP</CheckValue>
        </RangeCheck>
      </def:WhereClauseDef>
      <def:WhereClauseDef OID="WC.VS.VSSTRESU.00207">
        <RangeCheck Comparator="EQ" SoftHard="Soft" def:ItemOID="IT.VS.VSTESTCD">
          <CheckValue>BMI</CheckValue>
        </RangeCheck>
      </def:WhereClauseDef>
      <def:WhereClauseDef OID="WC.VS.VSSTRESU.00208">
        <RangeCheck Comparator="EQ" SoftHard="Soft" def:ItemOID="IT.VS.VSTESTCD">
          <CheckValue>HEIGHT</CheckValue>
        </RangeCheck>
      </def:WhereClauseDef>
      <def:WhereClauseDef OID="WC.VS.VSSTRESU.00209">
        <RangeCheck Comparator="EQ" SoftHard="Soft" def:ItemOID="IT.VS.VSTESTCD">
          <CheckValue>PULSE</CheckValue>
        </RangeCheck>
      </def:WhereClauseDef>
      <def:WhereClauseDef OID="WC.VS.VSSTRESU.00210">
        <RangeCheck Comparator="EQ" SoftHard="Soft" def:ItemOID="IT.VS.VSTESTCD">
          <CheckValue>TEMP</CheckValue>
        </RangeCheck>
      </def:WhereClauseDef>
      <def:WhereClauseDef OID="WC.VS.VSSTRESU.00211">
        <RangeCheck Comparator="EQ" SoftHard="Soft" def:ItemOID="IT.VS.VSTESTCD">
          <CheckValue>WEIGHT</CheckValue>
        </RangeCheck>
      </def:WhereClauseDef>
      <def:WhereClauseDef OID="WC.VS.VSSTRESU.00212">
        <RangeCheck Comparator="IN" SoftHard="Soft" def:ItemOID="IT.VS.VSTESTCD">
          <CheckValue>DIABP</CheckValue>
          <CheckValue>SYSBP</CheckValue>
        </RangeCheck>
      </def:WhereClauseDef>
      <ItemGroupDef OID="IG.TA" Name="TA" Repeating="No" IsReferenceData="Yes" SASDatasetName="TA" Domain="TA" Purpose="Tabulation" def:Structure="One record per planned Element per Arm" def:ArchiveLocationID="LF.TA" def:StandardOID="STD.1">
        <Description>
          <TranslatedText xml:lang="en">Trial Arms</TranslatedText>
        </Description>
        <ItemRef ItemOID="IT.TA.STUDYID" Mandatory="Yes" OrderNumber="1" KeySequence="1" Role="Identifier"/>
        <ItemRef ItemOID="IT.TA.DOMAIN" Mandatory="Yes" OrderNumber="2" Role="Identifier"/>
        <ItemRef ItemOID="IT.TA.ARMCD" Mandatory="Yes" OrderNumber="3" KeySequence="2" Role="Topic"/>
        <ItemRef ItemOID="IT.TA.ARM" Mandatory="Yes" OrderNumber="4" Role="Synonym Qualifier"/>
        <ItemRef ItemOID="IT.TA.TAETORD" Mandatory="Yes" OrderNumber="5" KeySequence="3" Role="Timing"/>
        <ItemRef ItemOID="IT.TA.ETCD" Mandatory="Yes" OrderNumber="6" Role="Record Qualifier"/>
        <ItemRef ItemOID="IT.TA.ELEMENT" Mandatory="No" OrderNumber="7" Role="Synonym Qualifier"/>
        <ItemRef ItemOID="IT.TA.TABRANCH" Mandatory="No" OrderNumber="8" Role="Rule"/>
        <ItemRef ItemOID="IT.TA.TATRANS" Mandatory="No" OrderNumber="9" Role="Rule"/>
        <ItemRef ItemOID="IT.TA.EPOCH" Mandatory="Yes" OrderNumber="10" MethodOID="MT.TA.EPOCH" Role="Timing"/>
        <def:Class Name="TRIAL DESIGN"/>
        <def:leaf ID="LF.TA" xlink:href="ta.xpt">
          <def:title>ta.xpt</def:title>
        </def:leaf>
      </ItemGroupDef>
      <ItemGroupDef OID="IG.TE" Name="TE" Repeating="No" IsReferenceData="Yes" SASDatasetName="TE" Domain="TE" Purpose="Tabulation" def:Structure="One record per planned Element" def:ArchiveLocationID="LF.TE" def:StandardOID="STD.1">
        <Description>
          <TranslatedText xml:lang="en">Trial Elements</TranslatedText>
        </Description>
        <ItemRef ItemOID="IT.TE.STUDYID" Mandatory="Yes" OrderNumber="1" KeySequence="1" Role="Identifier"/>
        <ItemRef ItemOID="IT.TE.DOMAIN" Mandatory="Yes" OrderNumber="2" Role="Identifier"/>
        <ItemRef ItemOID="IT.TE.ETCD" Mandatory="Yes" OrderNumber="3" KeySequence="2" Role="Topic"/>
        <ItemRef ItemOID="IT.TE.ELEMENT" Mandatory="Yes" OrderNumber="4" Role="Synonym Qualifier"/>
        <ItemRef ItemOID="IT.TE.TESTRL" Mandatory="Yes" OrderNumber="5" Role="Rule"/>
        <ItemRef ItemOID="IT.TE.TEENRL" Mandatory="No" OrderNumber="6" Role="Rule"/>
        <def:Class Name="TRIAL DESIGN"/>
        <def:leaf ID="LF.TE" xlink:href="te.xpt">
          <def:title>te.xpt</def:title>
        </def:leaf>
      </ItemGroupDef>
      <ItemGroupDef OID="IG.TI" Name="TI" Repeating="No" IsReferenceData="Yes" SASDatasetName="TI" Domain="TI" Purpose="Tabulation" def:Structure="One record per I/E criterion" def:ArchiveLocationID="LF.TI" def:StandardOID="STD.1">
        <Description>
          <TranslatedText xml:lang="en">Trial Inclusion/Exclusion Criteria</TranslatedText>
        </Description>
        <ItemRef ItemOID="IT.TI.STUDYID" Mandatory="Yes" OrderNumber="1" KeySequence="1" Role="Identifier"/>
        <ItemRef ItemOID="IT.TI.DOMAIN" Mandatory="Yes" OrderNumber="2" Role="Identifier"/>
        <ItemRef ItemOID="IT.TI.IETESTCD" Mandatory="Yes" OrderNumber="3" KeySequence="2" Role="Topic"/>
        <ItemRef ItemOID="IT.TI.IETEST" Mandatory="Yes" OrderNumber="4" Role="Synonym Qualifier"/>
        <ItemRef ItemOID="IT.TI.IECAT" Mandatory="Yes" OrderNumber="5" Role="Grouping Qualifier"/>
        <ItemRef ItemOID="IT.TI.TIVERS" Mandatory="No" OrderNumber="6" KeySequence="3" Role="Record Qualifier"/>
        <def:Class Name="TRIAL DESIGN"/>
        <def:leaf ID="LF.TI" xlink:href="ti.xpt">
          <def:title>ti.xpt</def:title>
        </def:leaf>
      </ItemGroupDef>
      <ItemGroupDef OID="IG.TS" Name="TS" Repeating="No" IsReferenceData="Yes" SASDatasetName="TS" Domain="TS" Purpose="Tabulation" def:Structure="One record per trial summary parameter value" def:ArchiveLocationID="LF.TS" def:StandardOID="STD.1">
        <Description>
          <TranslatedText xml:lang="en">Trial Summary</TranslatedText>
        </Description>
        <ItemRef ItemOID="IT.TS.STUDYID" Mandatory="Yes" OrderNumber="1" KeySequence="1" Role="Identifier"/>
        <ItemRef ItemOID="IT.TS.DOMAIN" Mandatory="Yes" OrderNumber="2" Role="Identifier"/>
        <ItemRef ItemOID="IT.TS.TSSEQ" Mandatory="Yes" OrderNumber="3" KeySequence="4" MethodOID="MT.TS.TSSEQ" Role="Identifier"/>
        <ItemRef ItemOID="IT.TS.TSGRPID" Mandatory="No" OrderNumber="4" Role="Identifier"/>
        <ItemRef ItemOID="IT.TS.TSPARMCD" Mandatory="Yes" OrderNumber="5" KeySequence="2" Role="Topic"/>
        <ItemRef ItemOID="IT.TS.TSPARM" Mandatory="Yes" OrderNumber="6" Role="Synonym Qualifier"/>
        <ItemRef ItemOID="IT.TS.TSVAL" Mandatory="No" OrderNumber="7" KeySequence="3" Role="Result Qualifier"/>
        <ItemRef ItemOID="IT.TS.TSVALNF" Mandatory="No" OrderNumber="8" Role="Result Qualifier"/>
        <ItemRef ItemOID="IT.TS.TSVALCD" Mandatory="No" OrderNumber="9" Role="Result Qualifier"/>
        <ItemRef ItemOID="IT.TS.TSVCDREF" Mandatory="No" OrderNumber="10" Role="Result Qualifier"/>
        <ItemRef ItemOID="IT.TS.TSVCDVER" Mandatory="No" OrderNumber="11" Role="Result Qualifier"/>
        <def:Class Name="TRIAL DESIGN"/>
        <def:leaf ID="LF.TS" xlink:href="ts.xpt">
          <def:title>ts.xpt</def:title>
        </def:leaf>
      </ItemGroupDef>
      <ItemGroupDef OID="IG.TV" Name="TV" Repeating="No" IsReferenceData="Yes" SASDatasetName="TV" Domain="TV" Purpose="Tabulation" def:Structure="One record per planned Visit per Arm" def:ArchiveLocationID="LF.TV" def:StandardOID="STD.1">
        <Description>
          <TranslatedText xml:lang="en">Trial Visits</TranslatedText>
        </Description>
        <ItemRef ItemOID="IT.TV.STUDYID" Mandatory="Yes" OrderNumber="1" KeySequence="1" Role="Identifier"/>
        <ItemRef ItemOID="IT.TV.DOMAIN" Mandatory="Yes" OrderNumber="2" Role="Identifier"/>
        <ItemRef ItemOID="IT.TV.VISITNUM" Mandatory="Yes" OrderNumber="3" KeySequence="2" Role="Topic"/>
        <ItemRef ItemOID="IT.TV.VISIT" Mandatory="No" OrderNumber="4" Role="Synonym Qualifier"/>
        <ItemRef ItemOID="IT.TV.ARMCD" Mandatory="No" OrderNumber="5" KeySequence="3" Role="Record Qualifier"/>
        <ItemRef ItemOID="IT.TV.TVSTRL" Mandatory="Yes" OrderNumber="6" Role="Rule"/>
        <ItemRef ItemOID="IT.TV.TVENRL" Mandatory="No" OrderNumber="7" Role="Rule"/>
        <def:Class Name="TRIAL DESIGN"/>
        <def:leaf ID="LF.TV" xlink:href="tv.xpt">
          <def:title>tv.xpt</def:title>
        </def:leaf>
      </ItemGroupDef>
      <ItemGroupDef OID="IG.DM" Name="DM" Repeating="No" IsReferenceData="No" SASDatasetName="DM" Domain="DM" Purpose="Tabulation" def:Structure="One record per subject" def:ArchiveLocationID="LF.DM" def:StandardOID="STD.1">
        <Description>
          <TranslatedText xml:lang="en">Demographics</TranslatedText>
        </Description>
        <ItemRef ItemOID="IT.DM.STUDYID" Mandatory="Yes" OrderNumber="1" KeySequence="1" Role="Identifier"/>
        <ItemRef ItemOID="IT.DM.DOMAIN" Mandatory="Yes" OrderNumber="2" Role="Identifier"/>
        <ItemRef ItemOID="IT.DM.USUBJID" Mandatory="Yes" OrderNumber="3" KeySequence="2" Role="Identifier"/>
        <ItemRef ItemOID="IT.DM.SUBJID" Mandatory="Yes" OrderNumber="4" Role="Topic"/>
        <ItemRef ItemOID="IT.DM.RFSTDTC" Mandatory="No" OrderNumber="5" MethodOID="MT.DM.RFSTDTC" Role="Record Qualifier"/>
        <ItemRef ItemOID="IT.DM.RFENDTC" Mandatory="No" OrderNumber="6" MethodOID="MT.DM.RFENDTC" Role="Record Qualifier"/>
        <ItemRef ItemOID="IT.DM.RFXSTDTC" Mandatory="No" OrderNumber="7" MethodOID="MT.DM.RFXSTDTC" Role="Record Qualifier"/>
        <ItemRef ItemOID="IT.DM.RFXENDTC" Mandatory="No" OrderNumber="8" MethodOID="MT.DM.RFXENDTC" Role="Record Qualifier"/>
        <ItemRef ItemOID="IT.DM.RFICDTC" Mandatory="No" OrderNumber="9" Role="Record Qualifier"/>
        <ItemRef ItemOID="IT.DM.RFPENDTC" Mandatory="No" OrderNumber="10" MethodOID="MT.DM.RFPENDTC" Role="Record Qualifier"/>
        <ItemRef ItemOID="IT.DM.DTHDTC" Mandatory="No" OrderNumber="11" Role="Record Qualifier"/>
        <ItemRef ItemOID="IT.DM.DTHFL" Mandatory="No" OrderNumber="12" MethodOID="MT.DM.DTHFL" Role="Record Qualifier"/>
        <ItemRef ItemOID="IT.DM.SITEID" Mandatory="Yes" OrderNumber="13" Role="Record Qualifier"/>
        <ItemRef ItemOID="IT.DM.BRTHDTC" Mandatory="No" OrderNumber="14" Role="Record Qualifier"/>
        <ItemRef ItemOID="IT.DM.AGE" Mandatory="No" OrderNumber="15" Role="Record Qualifier"/>
        <ItemRef ItemOID="IT.DM.AGEU" Mandatory="No" OrderNumber="16" Role="Variable Qualifier"/>
        <ItemRef ItemOID="IT.DM.SEX" Mandatory="Yes" OrderNumber="17" Role="Record Qualifier"/>
        <ItemRef ItemOID="IT.DM.RACE" Mandatory="No" OrderNumber="18" Role="Record Qualifier"/>
        <ItemRef ItemOID="IT.DM.ETHNIC" Mandatory="No" OrderNumber="19" Role="Record Qualifier"/>
        <ItemRef ItemOID="IT.DM.ARMCD" Mandatory="No" OrderNumber="20" Role="Record Qualifier"/>
        <ItemRef ItemOID="IT.DM.ARM" Mandatory="No" OrderNumber="21" Role="Synonym Qualifier"/>
        <ItemRef ItemOID="IT.DM.ACTARMCD" Mandatory="No" OrderNumber="22" Role="Record Qualifier"/>
        <ItemRef ItemOID="IT.DM.ACTARM" Mandatory="No" OrderNumber="23" Role="Synonym Qualifier"/>
        <ItemRef ItemOID="IT.DM.ARMNRS" Mandatory="No" OrderNumber="24" Role="Record Qualifier"/>
        <ItemRef ItemOID="IT.DM.ACTARMUD" Mandatory="No" OrderNumber="25" Role="Record Qualifier"/>
        <ItemRef ItemOID="IT.DM.COUNTRY" Mandatory="Yes" OrderNumber="26" Role="Record Qualifier"/>
        <def:Class Name="SPECIAL PURPOSE"/>
        <def:leaf ID="LF.DM" xlink:href="dm.xpt">
          <def:title>dm.xpt</def:title>
        </def:leaf>
      </ItemGroupDef>
      <ItemGroupDef OID="IG.SE" Name="SE" Repeating="Yes" IsReferenceData="No" SASDatasetName="SE" Domain="SE" Purpose="Tabulation" def:Structure="One record per actual Element per subject" def:ArchiveLocationID="LF.SE" def:StandardOID="STD.1">
        <Description>
          <TranslatedText xml:lang="en">Subject Elements</TranslatedText>
        </Description>
        <ItemRef ItemOID="IT.SE.STUDYID" Mandatory="Yes" OrderNumber="1" KeySequence="1" Role="Identifier"/>
        <ItemRef ItemOID="IT.SE.DOMAIN" Mandatory="Yes" OrderNumber="2" Role="Identifier"/>
        <ItemRef ItemOID="IT.SE.USUBJID" Mandatory="Yes" OrderNumber="3" KeySequence="2" Role="Identifier"/>
        <ItemRef ItemOID="IT.SE.SESEQ" Mandatory="Yes" OrderNumber="4" MethodOID="MT.SE.SESEQ" Role="Identifier"/>
        <ItemRef ItemOID="IT.SE.ETCD" Mandatory="Yes" OrderNumber="5" KeySequence="4" Role="Topic"/>
        <ItemRef ItemOID="IT.SE.ELEMENT" Mandatory="No" OrderNumber="6" Role="Synonym Qualifier"/>
        <ItemRef ItemOID="IT.SE.EPOCH" Mandatory="No" OrderNumber="7" MethodOID="MT.SE.EPOCH" Role="Timing"/>
        <ItemRef ItemOID="IT.SE.SESTDTC" Mandatory="Yes" OrderNumber="8" KeySequence="3" MethodOID="MT.SE.SESTDTC" Role="Timing"/>
        <ItemRef ItemOID="IT.SE.SEENDTC" Mandatory="No" OrderNumber="9" MethodOID="MT.SE.SEENDTC" Role="Timing"/>
        <ItemRef ItemOID="IT.SE.SESTDY" Mandatory="No" OrderNumber="10" MethodOID="MT.SE.SESTDY" Role="Timing"/>
        <ItemRef ItemOID="IT.SE.SEENDY" Mandatory="No" OrderNumber="11" MethodOID="MT.SE.SEENDY" Role="Timing"/>
        <def:Class Name="SPECIAL PURPOSE"/>
        <def:leaf ID="LF.SE" xlink:href="se.xpt">
          <def:title>se.xpt</def:title>
        </def:leaf>
      </ItemGroupDef>
      <ItemGroupDef OID="IG.SV" Name="SV" Repeating="Yes" IsReferenceData="No" SASDatasetName="SV" Domain="SV" Purpose="Tabulation" def:Structure="One record per actual visit per subject" def:ArchiveLocationID="LF.SV" def:StandardOID="STD.1">
        <Description>
          <TranslatedText xml:lang="en">Subject Visits</TranslatedText>
        </Description>
        <ItemRef ItemOID="IT.SV.STUDYID" Mandatory="Yes" OrderNumber="1" KeySequence="1" Role="Identifier"/>
        <ItemRef ItemOID="IT.SV.DOMAIN" Mandatory="Yes" OrderNumber="2" Role="Identifier"/>
        <ItemRef ItemOID="IT.SV.USUBJID" Mandatory="Yes" OrderNumber="3" KeySequence="2" Role="Identifier"/>
        <ItemRef ItemOID="IT.SV.VISITNUM" Mandatory="Yes" OrderNumber="4" KeySequence="4" Role="Topic"/>
        <ItemRef ItemOID="IT.SV.VISIT" Mandatory="No" OrderNumber="5" Role="Synonym Qualifier"/>
        <ItemRef ItemOID="IT.SV.SVSTDTC" Mandatory="No" OrderNumber="6" KeySequence="3" MethodOID="MT.SV.SVSTDTC" Role="Timing"/>
        <ItemRef ItemOID="IT.SV.SVENDTC" Mandatory="No" OrderNumber="7" MethodOID="MT.SV.SVENDTC" Role="Timing"/>
        <ItemRef ItemOID="IT.SV.SVSTDY" Mandatory="No" OrderNumber="8" MethodOID="MT.SV.SVSTDY" Role="Timing"/>
        <ItemRef ItemOID="IT.SV.SVENDY" Mandatory="No" OrderNumber="9" MethodOID="MT.SV.SVENDY" Role="Timing"/>
        <ItemRef ItemOID="IT.SV.SVUPDES" Mandatory="No" OrderNumber="10" Role="Synonym Qualifier"/>
        <def:Class Name="SPECIAL PURPOSE"/>
        <def:leaf ID="LF.SV" xlink:href="sv.xpt">
          <def:title>sv.xpt</def:title>
        </def:leaf>
      </ItemGroupDef>
      <ItemGroupDef OID="IG.CM" Name="CM" Repeating="Yes" IsReferenceData="No" SASDatasetName="CM" Domain="CM" Purpose="Tabulation" def:Structure="One record per recorded medication occurrence or constant-dosing interval per subject" def:ArchiveLocationID="LF.CM" def:StandardOID="STD.1">
        <Description>
          <TranslatedText xml:lang="en">Concomitant Medications</TranslatedText>
        </Description>
        <ItemRef ItemOID="IT.CM.STUDYID" Mandatory="Yes" OrderNumber="1" KeySequence="1" Role="Identifier"/>
        <ItemRef ItemOID="IT.CM.DOMAIN" Mandatory="Yes" OrderNumber="2" Role="Identifier"/>
        <ItemRef ItemOID="IT.CM.USUBJID" Mandatory="Yes" OrderNumber="3" KeySequence="2" Role="Identifier"/>
        <ItemRef ItemOID="IT.CM.CMSEQ" Mandatory="Yes" OrderNumber="4" MethodOID="MT.CM.CMSEQ" Role="Identifier"/>
        <ItemRef ItemOID="IT.CM.CMTRT" Mandatory="Yes" OrderNumber="5" KeySequence="4" Role="Topic"/>
        <ItemRef ItemOID="IT.CM.CMINDC" Mandatory="No" OrderNumber="6" Role="Record Qualifier"/>
        <ItemRef ItemOID="IT.CM.CMDOSE" Mandatory="No" OrderNumber="7" Role="Record Qualifier"/>
        <ItemRef ItemOID="IT.CM.CMDOSU" Mandatory="No" OrderNumber="8" Role="Variable Qualifier"/>
        <ItemRef ItemOID="IT.CM.CMDOSFRQ" Mandatory="No" OrderNumber="9" Role="Variable Qualifier"/>
        <ItemRef ItemOID="IT.CM.CMROUTE" Mandatory="No" OrderNumber="10" Role="Variable Qualifier"/>
        <ItemRef ItemOID="IT.CM.EPOCH" Mandatory="No" OrderNumber="11" MethodOID="MT.CM.EPOCH" Role="Timing"/>
        <ItemRef ItemOID="IT.CM.CMSTDTC" Mandatory="No" OrderNumber="12" KeySequence="3" Role="Timing"/>
        <ItemRef ItemOID="IT.CM.CMENDTC" Mandatory="No" OrderNumber="13" Role="Timing"/>
        <ItemRef ItemOID="IT.CM.CMSTDY" Mandatory="No" OrderNumber="14" MethodOID="MT.CM.CMSTDY" Role="Timing"/>
        <ItemRef ItemOID="IT.CM.CMENDY" Mandatory="No" OrderNumber="15" MethodOID="MT.CM.CMENDY" Role="Timing"/>
        <ItemRef ItemOID="IT.CM.CMENRTPT" Mandatory="No" OrderNumber="16" Role="Timing"/>
        <ItemRef ItemOID="IT.CM.CMENTPT" Mandatory="No" OrderNumber="17" MethodOID="MT.CM.CMENTPT" Role="Timing"/>
        <def:Class Name="INTERVENTIONS"/>
        <def:leaf ID="LF.CM" xlink:href="cm.xpt">
          <def:title>cm.xpt</def:title>
        </def:leaf>
      </ItemGroupDef>
      <ItemGroupDef OID="IG.EC" Name="EC" Repeating="Yes" IsReferenceData="No" SASDatasetName="EC" Domain="EC" Purpose="Tabulation" def:Structure="One record per constant-dosing interval per mood per subject" def:ArchiveLocationID="LF.EC" def:StandardOID="STD.1">
        <Description>
          <TranslatedText xml:lang="en">Exposure as Collected</TranslatedText>
        </Description>
        <ItemRef ItemOID="IT.EC.STUDYID" Mandatory="Yes" OrderNumber="1" KeySequence="1" Role="Identifier"/>
        <ItemRef ItemOID="IT.EC.DOMAIN" Mandatory="Yes" OrderNumber="2" Role="Identifier"/>
        <ItemRef ItemOID="IT.EC.USUBJID" Mandatory="Yes" OrderNumber="3" KeySequence="2" Role="Identifier"/>
        <ItemRef ItemOID="IT.EC.SPDEVID" Mandatory="Yes" OrderNumber="4" Role="Identifier"/>
        <ItemRef ItemOID="IT.EC.ECSEQ" Mandatory="Yes" OrderNumber="5" MethodOID="MT.EC.ECSEQ" Role="Identifier"/>
        <ItemRef ItemOID="IT.EC.ECTRT" Mandatory="Yes" OrderNumber="6" KeySequence="3" Role="Topic"/>
        <ItemRef ItemOID="IT.EC.ECPRESP" Mandatory="Yes" OrderNumber="7" Role="Variable Qualifier"/>
        <ItemRef ItemOID="IT.EC.ECOCCUR" Mandatory="Yes" OrderNumber="8" Role="Record Qualifier"/>
        <ItemRef ItemOID="IT.EC.ECDOSE" Mandatory="No" OrderNumber="9" Role="Record Qualifier"/>
        <ItemRef ItemOID="IT.EC.ECDOSU" Mandatory="No" OrderNumber="10" Role="Variable Qualifier"/>
        <ItemRef ItemOID="IT.EC.ECDOSFRM" Mandatory="No" OrderNumber="11" Role="Variable Qualifier"/>
        <ItemRef ItemOID="IT.EC.ECDOSFRQ" Mandatory="No" OrderNumber="12" Role="Variable Qualifier"/>
        <ItemRef ItemOID="IT.EC.ECROUTE" Mandatory="No" OrderNumber="13" Role="Variable Qualifier"/>
        <ItemRef ItemOID="IT.EC.ECLOT" Mandatory="No" OrderNumber="14" Role="Record Qualifier"/>
        <ItemRef ItemOID="IT.EC.ECPSTRG" Mandatory="Yes" OrderNumber="15" Role="Record Qualifier"/>
        <ItemRef ItemOID="IT.EC.ECPSTRGU" Mandatory="Yes" OrderNumber="16" Role="Variable Qualifier"/>
        <ItemRef ItemOID="IT.EC.EPOCH" Mandatory="No" OrderNumber="17" MethodOID="MT.EC.EPOCH" Role="Timing"/>
        <ItemRef ItemOID="IT.EC.ECSTDTC" Mandatory="No" OrderNumber="18" KeySequence="4" Role="Timing"/>
        <ItemRef ItemOID="IT.EC.ECENDTC" Mandatory="No" OrderNumber="19" Role="Timing"/>
        <ItemRef ItemOID="IT.EC.ECSTDY" Mandatory="No" OrderNumber="20" MethodOID="MT.EC.ECSTDY" Role="Timing"/>
        <ItemRef ItemOID="IT.EC.ECENDY" Mandatory="No" OrderNumber="21" MethodOID="MT.EC.ECENDY" Role="Timing"/>
        <def:Class Name="INTERVENTIONS"/>
        <def:leaf ID="LF.EC" xlink:href="ec.xpt">
          <def:title>ec.xpt</def:title>
        </def:leaf>
      </ItemGroupDef>
      <ItemGroupDef OID="IG.EX" Name="EX" Repeating="Yes" IsReferenceData="No" SASDatasetName="EX" Domain="EX" Purpose="Tabulation" def:Structure="One record per constant dosing interval per subject" def:ArchiveLocationID="LF.EX" def:StandardOID="STD.1">
        <Description>
          <TranslatedText xml:lang="en">Exposure</TranslatedText>
        </Description>
        <ItemRef ItemOID="IT.EX.STUDYID" Mandatory="Yes" OrderNumber="1" KeySequence="1" Role="Identifier"/>
        <ItemRef ItemOID="IT.EX.DOMAIN" Mandatory="Yes" OrderNumber="2" Role="Identifier"/>
        <ItemRef ItemOID="IT.EX.USUBJID" Mandatory="Yes" OrderNumber="3" KeySequence="2" Role="Identifier"/>
        <ItemRef ItemOID="IT.EX.SPDEVID" Mandatory="Yes" OrderNumber="4" Role="Identifier"/>
        <ItemRef ItemOID="IT.EX.EXSEQ" Mandatory="Yes" OrderNumber="5" MethodOID="MT.EX.EXSEQ" Role="Identifier"/>
        <ItemRef ItemOID="IT.EX.EXTRT" Mandatory="Yes" OrderNumber="6" KeySequence="3" Role="Topic"/>
        <ItemRef ItemOID="IT.EX.EXDOSE" Mandatory="No" OrderNumber="7" MethodOID="MT.EX.EXDOSE" Role="Record Qualifier"/>
        <ItemRef ItemOID="IT.EX.EXDOSU" Mandatory="No" OrderNumber="8" Role="Variable Qualifier"/>
        <ItemRef ItemOID="IT.EX.EXDOSFRM" Mandatory="No" OrderNumber="9" Role="Variable Qualifier"/>
        <ItemRef ItemOID="IT.EX.EXDOSFRQ" Mandatory="No" OrderNumber="10" Role="Variable Qualifier"/>
        <ItemRef ItemOID="IT.EX.EXROUTE" Mandatory="No" OrderNumber="11" Role="Variable Qualifier"/>
        <ItemRef ItemOID="IT.EX.EXLOT" Mandatory="No" OrderNumber="12" Role="Record Qualifier"/>
        <ItemRef ItemOID="IT.EX.EPOCH" Mandatory="No" OrderNumber="13" Role="Timing"/>
        <ItemRef ItemOID="IT.EX.EXSTDTC" Mandatory="No" OrderNumber="14" KeySequence="4" Role="Timing"/>
        <ItemRef ItemOID="IT.EX.EXENDTC" Mandatory="No" OrderNumber="15" Role="Timing"/>
        <ItemRef ItemOID="IT.EX.EXSTDY" Mandatory="No" OrderNumber="16" Role="Timing"/>
        <ItemRef ItemOID="IT.EX.EXENDY" Mandatory="No" OrderNumber="17" Role="Timing"/>
        <def:Class Name="INTERVENTIONS"/>
        <def:leaf ID="LF.EX" xlink:href="ex.xpt">
          <def:title>ex.xpt</def:title>
        </def:leaf>
      </ItemGroupDef>
      <ItemGroupDef OID="IG.AE" Name="AE" Repeating="Yes" IsReferenceData="No" SASDatasetName="AE" Domain="AE" Purpose="Tabulation" def:Structure="One record per adverse event per subject" def:ArchiveLocationID="LF.AE" def:StandardOID="STD.1">
        <Description>
          <TranslatedText xml:lang="en">Adverse Events</TranslatedText>
        </Description>
        <ItemRef ItemOID="IT.AE.STUDYID" Mandatory="Yes" OrderNumber="1" KeySequence="1" Role="Identifier"/>
        <ItemRef ItemOID="IT.AE.DOMAIN" Mandatory="Yes" OrderNumber="2" Role="Identifier"/>
        <ItemRef ItemOID="IT.AE.USUBJID" Mandatory="Yes" OrderNumber="3" KeySequence="2" Role="Identifier"/>
        <ItemRef ItemOID="IT.AE.AESEQ" Mandatory="Yes" OrderNumber="4" MethodOID="MT.AE.AESEQ" Role="Identifier"/>
        <ItemRef ItemOID="IT.AE.AELNKID" Mandatory="No" OrderNumber="5" KeySequence="5" Role="Identifier"/>
        <ItemRef ItemOID="IT.AE.AETERM" Mandatory="Yes" OrderNumber="6" Role="Topic"/>
        <ItemRef ItemOID="IT.AE.AELLT" Mandatory="No" OrderNumber="7" Role="Variable Qualifier" def:HasNoData="Yes"/>
        <ItemRef ItemOID="IT.AE.AELLTCD" Mandatory="No" OrderNumber="8" Role="Variable Qualifier" def:HasNoData="Yes"/>
        <ItemRef ItemOID="IT.AE.AEDECOD" Mandatory="Yes" OrderNumber="9" KeySequence="3" Role="Synonym Qualifier" def:HasNoData="Yes"/>
        <ItemRef ItemOID="IT.AE.AEPTCD" Mandatory="No" OrderNumber="10" Role="Variable Qualifier" def:HasNoData="Yes"/>
        <ItemRef ItemOID="IT.AE.AEHLT" Mandatory="No" OrderNumber="11" Role="Variable Qualifier" def:HasNoData="Yes"/>
        <ItemRef ItemOID="IT.AE.AEHLTCD" Mandatory="No" OrderNumber="12" Role="Variable Qualifier" def:HasNoData="Yes"/>
        <ItemRef ItemOID="IT.AE.AEHLGT" Mandatory="No" OrderNumber="13" Role="Variable Qualifier" def:HasNoData="Yes"/>
        <ItemRef ItemOID="IT.AE.AEHLGTCD" Mandatory="No" OrderNumber="14" Role="Variable Qualifier" def:HasNoData="Yes"/>
        <ItemRef ItemOID="IT.AE.AEBODSYS" Mandatory="No" OrderNumber="15" Role="Record Qualifier" def:HasNoData="Yes"/>
        <ItemRef ItemOID="IT.AE.AEBDSYCD" Mandatory="No" OrderNumber="16" Role="Variable Qualifier" def:HasNoData="Yes"/>
        <ItemRef ItemOID="IT.AE.AESOC" Mandatory="No" OrderNumber="17" Role="Variable Qualifier" def:HasNoData="Yes"/>
        <ItemRef ItemOID="IT.AE.AESOCCD" Mandatory="No" OrderNumber="18" Role="Variable Qualifier" def:HasNoData="Yes"/>
        <ItemRef ItemOID="IT.AE.AESEV" Mandatory="No" OrderNumber="19" Role="Record Qualifier"/>
        <ItemRef ItemOID="IT.AE.AESER" Mandatory="No" OrderNumber="20" Role="Record Qualifier"/>
        <ItemRef ItemOID="IT.AE.AEACN" Mandatory="No" OrderNumber="21" Role="Record Qualifier"/>
        <ItemRef ItemOID="IT.AE.AEREL" Mandatory="No" OrderNumber="22" Role="Record Qualifier"/>
        <ItemRef ItemOID="IT.AE.AEOUT" Mandatory="No" OrderNumber="23" Role="Record Qualifier"/>
        <ItemRef ItemOID="IT.AE.AESCAN" Mandatory="No" OrderNumber="24" Role="Record Qualifier"/>
        <ItemRef ItemOID="IT.AE.AESCONG" Mandatory="No" OrderNumber="25" Role="Record Qualifier"/>
        <ItemRef ItemOID="IT.AE.AESDISAB" Mandatory="No" OrderNumber="26" Role="Record Qualifier"/>
        <ItemRef ItemOID="IT.AE.AESDTH" Mandatory="No" OrderNumber="27" Role="Record Qualifier"/>
        <ItemRef ItemOID="IT.AE.AESHOSP" Mandatory="No" OrderNumber="28" Role="Record Qualifier"/>
        <ItemRef ItemOID="IT.AE.AESLIFE" Mandatory="No" OrderNumber="29" Role="Record Qualifier"/>
        <ItemRef ItemOID="IT.AE.AESOD" Mandatory="No" OrderNumber="30" Role="Record Qualifier"/>
        <ItemRef ItemOID="IT.AE.EPOCH" Mandatory="No" OrderNumber="31" MethodOID="MT.AE.EPOCH" Role="Timing"/>
        <ItemRef ItemOID="IT.AE.AESTDTC" Mandatory="No" OrderNumber="32" KeySequence="4" Role="Timing"/>
        <ItemRef ItemOID="IT.AE.AEENDTC" Mandatory="No" OrderNumber="33" Role="Timing"/>
        <ItemRef ItemOID="IT.AE.AESTDY" Mandatory="No" OrderNumber="34" MethodOID="MT.AE.AESTDY" Role="Timing"/>
        <ItemRef ItemOID="IT.AE.AEENDY" Mandatory="No" OrderNumber="35" MethodOID="MT.AE.AEENDY" Role="Timing"/>
        <ItemRef ItemOID="IT.AE.AEENRTPT" Mandatory="No" OrderNumber="36" Role="Timing"/>
        <ItemRef ItemOID="IT.AE.AEENTPT" Mandatory="No" OrderNumber="37" MethodOID="MT.AE.AEENTPT" Role="Timing"/>
        <def:Class Name="EVENTS"/>
        <def:leaf ID="LF.AE" xlink:href="ae.xpt">
          <def:title>ae.xpt</def:title>
        </def:leaf>
      </ItemGroupDef>
      <ItemGroupDef OID="IG.DS" Name="DS" Repeating="Yes" IsReferenceData="No" SASDatasetName="DS" Domain="DS" Purpose="Tabulation" def:Structure="One record per disposition status or protocol milestone per subject" def:ArchiveLocationID="LF.DS" def:StandardOID="STD.1">
        <Description>
          <TranslatedText xml:lang="en">Disposition</TranslatedText>
        </Description>
        <ItemRef ItemOID="IT.DS.STUDYID" Mandatory="Yes" OrderNumber="1" KeySequence="1" Role="Identifier"/>
        <ItemRef ItemOID="IT.DS.DOMAIN" Mandatory="Yes" OrderNumber="2" Role="Identifier"/>
        <ItemRef ItemOID="IT.DS.USUBJID" Mandatory="Yes" OrderNumber="3" KeySequence="2" Role="Identifier"/>
        <ItemRef ItemOID="IT.DS.DSSEQ" Mandatory="Yes" OrderNumber="4" MethodOID="MT.DS.DSSEQ" Role="Identifier"/>
        <ItemRef ItemOID="IT.DS.DSLNKID" Mandatory="No" OrderNumber="5" Role="Identifier"/>
        <ItemRef ItemOID="IT.DS.DSTERM" Mandatory="Yes" OrderNumber="6" Role="Topic"/>
        <ItemRef ItemOID="IT.DS.DSDECOD" Mandatory="Yes" OrderNumber="7" KeySequence="6" Role="Synonym Qualifier"/>
        <ItemRef ItemOID="IT.DS.DSCAT" Mandatory="No" OrderNumber="8" KeySequence="4" Role="Grouping Qualifier"/>
        <ItemRef ItemOID="IT.DS.DSSCAT" Mandatory="No" OrderNumber="9" KeySequence="5" Role="Grouping Qualifier"/>
        <ItemRef ItemOID="IT.DS.EPOCH" Mandatory="No" OrderNumber="10" MethodOID="MT.DS.EPOCH" Role="Timing"/>
        <ItemRef ItemOID="IT.DS.DSSTDTC" Mandatory="No" OrderNumber="11" KeySequence="3" Role="Timing"/>
        <ItemRef ItemOID="IT.DS.DSSTDY" Mandatory="No" OrderNumber="12" MethodOID="MT.DS.DSSTDY" Role="Timing"/>
        <def:Class Name="EVENTS"/>
        <def:leaf ID="LF.DS" xlink:href="ds.xpt">
          <def:title>ds.xpt</def:title>
        </def:leaf>
      </ItemGroupDef>
      <ItemGroupDef OID="IG.MH" Name="MH" Repeating="Yes" IsReferenceData="No" SASDatasetName="MH" Domain="MH" Purpose="Tabulation" def:Structure="One record per medical history event per subject" def:ArchiveLocationID="LF.MH" def:StandardOID="STD.1">
        <Description>
          <TranslatedText xml:lang="en">Medical History</TranslatedText>
        </Description>
        <ItemRef ItemOID="IT.MH.STUDYID" Mandatory="Yes" OrderNumber="1" KeySequence="1" Role="Identifier"/>
        <ItemRef ItemOID="IT.MH.DOMAIN" Mandatory="Yes" OrderNumber="2" Role="Identifier"/>
        <ItemRef ItemOID="IT.MH.USUBJID" Mandatory="Yes" OrderNumber="3" KeySequence="2" Role="Identifier"/>
        <ItemRef ItemOID="IT.MH.MHSEQ" Mandatory="Yes" OrderNumber="4" MethodOID="MT.MH.MHSEQ" Role="Identifier"/>
        <ItemRef ItemOID="IT.MH.MHTERM" Mandatory="Yes" OrderNumber="5" KeySequence="3" Role="Topic"/>
        <ItemRef ItemOID="IT.MH.MHEVDTYP" Mandatory="No" OrderNumber="6" Role="Variable Qualifier"/>
        <ItemRef ItemOID="IT.MH.MHSTDTC" Mandatory="No" OrderNumber="7" KeySequence="4" Role="Timing"/>
        <ItemRef ItemOID="IT.MH.MHSTDY" Mandatory="No" OrderNumber="8" MethodOID="MT.MH.MHSTDY" Role="Timing"/>
        <def:Class Name="EVENTS"/>
        <def:leaf ID="LF.MH" xlink:href="mh.xpt">
          <def:title>mh.xpt</def:title>
        </def:leaf>
      </ItemGroupDef>
      <ItemGroupDef OID="IG.DD" Name="DD" Repeating="Yes" IsReferenceData="No" SASDatasetName="DD" Domain="DD" Purpose="Tabulation" def:Structure="One record per death detail per subject" def:ArchiveLocationID="LF.DD" def:StandardOID="STD.1">
        <Description>
          <TranslatedText xml:lang="en">Death Details</TranslatedText>
        </Description>
        <ItemRef ItemOID="IT.DD.STUDYID" Mandatory="Yes" OrderNumber="1" KeySequence="1" Role="Identifier"/>
        <ItemRef ItemOID="IT.DD.DOMAIN" Mandatory="Yes" OrderNumber="2" Role="Identifier"/>
        <ItemRef ItemOID="IT.DD.USUBJID" Mandatory="Yes" OrderNumber="3" KeySequence="2" Role="Identifier"/>
        <ItemRef ItemOID="IT.DD.DDSEQ" Mandatory="Yes" OrderNumber="4" MethodOID="MT.DD.DDSEQ" Role="Identifier"/>
        <ItemRef ItemOID="IT.DD.DDLNKID" Mandatory="No" OrderNumber="5" Role="Identifier"/>
        <ItemRef ItemOID="IT.DD.DDTESTCD" Mandatory="Yes" OrderNumber="6" KeySequence="3" Role="Topic"/>
        <ItemRef ItemOID="IT.DD.DDTEST" Mandatory="Yes" OrderNumber="7" Role="Synonym Qualifier"/>
        <ItemRef ItemOID="IT.DD.DDORRES" Mandatory="No" OrderNumber="8" Role="Result Qualifier"/>
        <ItemRef ItemOID="IT.DD.DDSTRESC" Mandatory="No" OrderNumber="9" Role="Result Qualifier"/>
        <ItemRef ItemOID="IT.DD.EPOCH" Mandatory="No" OrderNumber="10" MethodOID="MT.DD.EPOCH" Role="Timing"/>
        <ItemRef ItemOID="IT.DD.DDDTC" Mandatory="No" OrderNumber="11" Role="Timing"/>
        <ItemRef ItemOID="IT.DD.DDDY" Mandatory="No" OrderNumber="12" MethodOID="MT.DD.DDDY" Role="Timing"/>
        <def:Class Name="FINDINGS"/>
        <def:leaf ID="LF.DD" xlink:href="dd.xpt">
          <def:title>dd.xpt</def:title>
        </def:leaf>
      </ItemGroupDef>
      <ItemGroupDef OID="IG.FT" Name="FT" Repeating="Yes" IsReferenceData="No" SASDatasetName="FT" Domain="FT" Purpose="Tabulation" def:Structure="One record per functional test finding per timepoint per visit per subject" def:ArchiveLocationID="LF.FT" def:StandardOID="STD.1">
        <Description>
          <TranslatedText xml:lang="en">Functional Tests</TranslatedText>
        </Description>
        <ItemRef ItemOID="IT.FT.STUDYID" Mandatory="Yes" OrderNumber="1" KeySequence="1" Role="Identifier"/>
        <ItemRef ItemOID="IT.FT.DOMAIN" Mandatory="Yes" OrderNumber="2" Role="Identifier"/>
        <ItemRef ItemOID="IT.FT.USUBJID" Mandatory="Yes" OrderNumber="3" KeySequence="2" Role="Identifier"/>
        <ItemRef ItemOID="IT.FT.FTSEQ" Mandatory="Yes" OrderNumber="4" MethodOID="MT.FT.FTSEQ" Role="Identifier"/>
        <ItemRef ItemOID="IT.FT.FTTESTCD" Mandatory="Yes" OrderNumber="5" KeySequence="3" Role="Topic"/>
        <ItemRef ItemOID="IT.FT.FTTEST" Mandatory="Yes" OrderNumber="6" Role="Synonym Qualifier"/>
        <ItemRef ItemOID="IT.FT.FTCAT" Mandatory="Yes" OrderNumber="7" Role="Grouping Qualifier"/>
        <ItemRef ItemOID="IT.FT.FTSCAT" Mandatory="Yes" OrderNumber="8" Role="Grouping Qualifier"/>
        <ItemRef ItemOID="IT.FT.FTORRES" Mandatory="No" OrderNumber="9" Role="Result Qualifier"/>
        <ItemRef ItemOID="IT.FT.FTSTRESC" Mandatory="No" OrderNumber="10" Role="Result Qualifier"/>
        <ItemRef ItemOID="IT.FT.FTSTRESN" Mandatory="No" OrderNumber="11" MethodOID="MT.FT.FTSTRESN" Role="Result Qualifier"/>
        <ItemRef ItemOID="IT.FT.FTLOBXFL" Mandatory="No" OrderNumber="12" MethodOID="MT.FT.FTLOBXFL" Role="Record Qualifier"/>
        <ItemRef ItemOID="IT.FT.FTREPNUM" Mandatory="No" OrderNumber="13" KeySequence="4" Role="Record Qualifier"/>
        <ItemRef ItemOID="IT.FT.VISITNUM" Mandatory="No" OrderNumber="14" KeySequence="5" Role="Timing"/>
        <ItemRef ItemOID="IT.FT.VISIT" Mandatory="No" OrderNumber="15" Role="Timing"/>
        <ItemRef ItemOID="IT.FT.EPOCH" Mandatory="No" OrderNumber="16" MethodOID="MT.FT.EPOCH" Role="Timing"/>
        <ItemRef ItemOID="IT.FT.FTDTC" Mandatory="No" OrderNumber="17" Role="Timing"/>
        <ItemRef ItemOID="IT.FT.FTDY" Mandatory="No" OrderNumber="18" MethodOID="MT.FT.FTDY" Role="Timing"/>
        <ItemRef ItemOID="IT.FT.FTTPT" Mandatory="No" OrderNumber="19" Role="Timing"/>
        <ItemRef ItemOID="IT.FT.FTTPTNUM" Mandatory="No" OrderNumber="20" Role="Timing"/>
        <ItemRef ItemOID="IT.FT.FTELTM" Mandatory="No" OrderNumber="21" Role="Timing"/>
        <ItemRef ItemOID="IT.FT.FTTPTREF" Mandatory="No" OrderNumber="22" Role="Timing"/>
        <def:Class Name="FINDINGS"/>
        <def:leaf ID="LF.FT" xlink:href="ft.xpt">
          <def:title>ft.xpt</def:title>
        </def:leaf>
      </ItemGroupDef>
      <ItemGroupDef OID="IG.IE" Name="IE" Repeating="Yes" IsReferenceData="No" SASDatasetName="IE" Domain="IE" Purpose="Tabulation" def:Structure="One record per inclusion/exclusion criterion not met per subject" def:ArchiveLocationID="LF.IE" def:StandardOID="STD.1">
        <Description>
          <TranslatedText xml:lang="en">Inclusion/Exclusion Criteria Not Met</TranslatedText>
        </Description>
        <ItemRef ItemOID="IT.IE.STUDYID" Mandatory="Yes" OrderNumber="1" KeySequence="1" Role="Identifier"/>
        <ItemRef ItemOID="IT.IE.DOMAIN" Mandatory="Yes" OrderNumber="2" Role="Identifier"/>
        <ItemRef ItemOID="IT.IE.USUBJID" Mandatory="Yes" OrderNumber="3" KeySequence="2" Role="Identifier"/>
        <ItemRef ItemOID="IT.IE.IESEQ" Mandatory="Yes" OrderNumber="4" MethodOID="MT.IE.IESEQ" Role="Identifier"/>
        <ItemRef ItemOID="IT.IE.IETESTCD" Mandatory="Yes" OrderNumber="5" KeySequence="3" Role="Topic"/>
        <ItemRef ItemOID="IT.IE.IETEST" Mandatory="Yes" OrderNumber="6" Role="Synonym Qualifier"/>
        <ItemRef ItemOID="IT.IE.IECAT" Mandatory="Yes" OrderNumber="7" Role="Grouping Qualifier"/>
        <ItemRef ItemOID="IT.IE.IEORRES" Mandatory="Yes" OrderNumber="8" MethodOID="MT.IE.IEORRES" Role="Result Qualifier"/>
        <ItemRef ItemOID="IT.IE.IESTRESC" Mandatory="Yes" OrderNumber="9" Role="Result Qualifier"/>
        <ItemRef ItemOID="IT.IE.EPOCH" Mandatory="No" OrderNumber="10" MethodOID="MT.IE.EPOCH" Role="Timing"/>
        <ItemRef ItemOID="IT.IE.IEDTC" Mandatory="No" OrderNumber="11" Role="Timing"/>
        <ItemRef ItemOID="IT.IE.IEDY" Mandatory="No" OrderNumber="12" MethodOID="MT.IE.IEDY" Role="Timing"/>
        <def:Class Name="FINDINGS"/>
        <def:leaf ID="LF.IE" xlink:href="ie.xpt">
          <def:title>ie.xpt</def:title>
        </def:leaf>
      </ItemGroupDef>
      <ItemGroupDef OID="IG.LB" Name="LB" Repeating="Yes" IsReferenceData="No" SASDatasetName="LB" Domain="LB" Purpose="Tabulation" def:Structure="One record per analyte per visit per subject" def:ArchiveLocationID="LF.LB" def:StandardOID="STD.1">
        <Description>
          <TranslatedText xml:lang="en">Laboratory Test Results</TranslatedText>
        </Description>
        <ItemRef ItemOID="IT.LB.STUDYID" Mandatory="Yes" OrderNumber="1" KeySequence="1" Role="Identifier"/>
        <ItemRef ItemOID="IT.LB.DOMAIN" Mandatory="Yes" OrderNumber="2" Role="Identifier"/>
        <ItemRef ItemOID="IT.LB.USUBJID" Mandatory="Yes" OrderNumber="3" KeySequence="2" Role="Identifier"/>
        <ItemRef ItemOID="IT.LB.LBSEQ" Mandatory="Yes" OrderNumber="4" MethodOID="MT.LB.LBSEQ" Role="Identifier"/>
        <ItemRef ItemOID="IT.LB.LBTESTCD" Mandatory="Yes" OrderNumber="5" KeySequence="4" Role="Topic"/>
        <ItemRef ItemOID="IT.LB.LBTEST" Mandatory="Yes" OrderNumber="6" Role="Synonym Qualifier"/>
        <ItemRef ItemOID="IT.LB.LBCAT" Mandatory="No" OrderNumber="7" KeySequence="3" Role="Grouping Qualifier"/>
        <ItemRef ItemOID="IT.LB.LBORRES" Mandatory="No" OrderNumber="8" Role="Result Qualifier"/>
        <ItemRef ItemOID="IT.LB.LBORRESU" Mandatory="No" OrderNumber="9" Role="Variable Qualifier"/>
        <ItemRef ItemOID="IT.LB.LBORNRLO" Mandatory="No" OrderNumber="10" Role="Variable Qualifier"/>
        <ItemRef ItemOID="IT.LB.LBORNRHI" Mandatory="No" OrderNumber="11" Role="Variable Qualifier"/>
        <ItemRef ItemOID="IT.LB.LBSTRESC" Mandatory="No" OrderNumber="12" MethodOID="MT.LB.LBSTRESC" Role="Result Qualifier"/>
        <ItemRef ItemOID="IT.LB.LBSTRESN" Mandatory="No" OrderNumber="13" MethodOID="MT.LB.LBSTRESN" Role="Result Qualifier"/>
        <ItemRef ItemOID="IT.LB.LBSTRESU" Mandatory="No" OrderNumber="14" Role="Variable Qualifier"/>
        <ItemRef ItemOID="IT.LB.LBSTNRLO" Mandatory="No" OrderNumber="15" Role="Variable Qualifier"/>
        <ItemRef ItemOID="IT.LB.LBSTNRHI" Mandatory="No" OrderNumber="16" Role="Variable Qualifier"/>
        <ItemRef ItemOID="IT.LB.LBNRIND" Mandatory="No" OrderNumber="17" Role="Variable Qualifier"/>
        <ItemRef ItemOID="IT.LB.LBLOBXFL" Mandatory="No" OrderNumber="18" MethodOID="MT.LB.LBLOBXFL" Role="Record Qualifier"/>
        <ItemRef ItemOID="IT.LB.VISITNUM" Mandatory="No" OrderNumber="19" KeySequence="6" Role="Timing"/>
        <ItemRef ItemOID="IT.LB.VISIT" Mandatory="No" OrderNumber="20" Role="Timing"/>
        <ItemRef ItemOID="IT.LB.EPOCH" Mandatory="No" OrderNumber="21" MethodOID="MT.LB.EPOCH" Role="Timing"/>
        <ItemRef ItemOID="IT.LB.LBDTC" Mandatory="No" OrderNumber="22" KeySequence="5" Role="Timing"/>
        <ItemRef ItemOID="IT.LB.LBDY" Mandatory="No" OrderNumber="23" MethodOID="MT.LB.LBDY" Role="Timing"/>
        <def:Class Name="FINDINGS"/>
        <def:leaf ID="LF.LB" xlink:href="lb.xpt">
          <def:title>lb.xpt</def:title>
        </def:leaf>
      </ItemGroupDef>
      <ItemGroupDef OID="IG.NV" Name="NV" Repeating="Yes" IsReferenceData="No" SASDatasetName="NV" Domain="NV" Purpose="Tabulation" def:Structure="One record per finding per visit per subject" def:CommentOID="COM.NV" def:StandardOID="STD.1" def:HasNoData="Yes">
        <Description>
          <TranslatedText xml:lang="en">Nervous System Findings</TranslatedText>
        </Description>
        <ItemRef ItemOID="IT.NV.STUDYID" Mandatory="Yes" OrderNumber="1" KeySequence="1" Role="Identifier"/>
        <ItemRef ItemOID="IT.NV.DOMAIN" Mandatory="Yes" OrderNumber="2" Role="Identifier"/>
        <ItemRef ItemOID="IT.NV.USUBJID" Mandatory="Yes" OrderNumber="3" KeySequence="2" Role="Identifier"/>
        <ItemRef ItemOID="IT.NV.NVSEQ" Mandatory="Yes" OrderNumber="4" MethodOID="MT.NV.NVSEQ" Role="Identifier"/>
        <ItemRef ItemOID="IT.NV.NVTESTCD" Mandatory="Yes" OrderNumber="5" KeySequence="3" Role="Topic"/>
        <ItemRef ItemOID="IT.NV.NVTEST" Mandatory="Yes" OrderNumber="6" Role="Synonym Qualifier"/>
        <ItemRef ItemOID="IT.NV.NVORRES" Mandatory="No" OrderNumber="7" Role="Result Qualifier"/>
        <ItemRef ItemOID="IT.NV.NVSTRESC" Mandatory="No" OrderNumber="8" Role="Result Qualifier"/>
        <ItemRef ItemOID="IT.NV.VISITNUM" Mandatory="No" OrderNumber="9" KeySequence="4" Role="Timing"/>
        <ItemRef ItemOID="IT.NV.EPOCH" Mandatory="No" OrderNumber="10" MethodOID="MT.NV.EPOCH" Role="Timing"/>
        <ItemRef ItemOID="IT.NV.NVDTC" Mandatory="No" OrderNumber="11" Role="Timing"/>
        <ItemRef ItemOID="IT.NV.NVDY" Mandatory="No" OrderNumber="12" MethodOID="MT.NV.NVDY" Role="Timing"/>
        <def:Class Name="FINDINGS"/>
      </ItemGroupDef>
      <ItemGroupDef OID="IG.OE" Name="OE" Repeating="Yes" IsReferenceData="No" SASDatasetName="OE" Domain="OE" Purpose="Tabulation" def:Structure="One record per ophthalmic finding per visit per subject" def:ArchiveLocationID="LF.OE" def:StandardOID="STD.1">
        <Description>
          <TranslatedText xml:lang="en">Ophthalmic Examinations</TranslatedText>
        </Description>
        <ItemRef ItemOID="IT.OE.STUDYID" Mandatory="Yes" OrderNumber="1" KeySequence="1" Role="Identifier"/>
        <ItemRef ItemOID="IT.OE.DOMAIN" Mandatory="Yes" OrderNumber="2" Role="Identifier"/>
        <ItemRef ItemOID="IT.OE.USUBJID" Mandatory="Yes" OrderNumber="3" KeySequence="2" Role="Identifier"/>
        <ItemRef ItemOID="IT.OE.FOCID" Mandatory="No" OrderNumber="4" Role="Identifier"/>
        <ItemRef ItemOID="IT.OE.OESEQ" Mandatory="Yes" OrderNumber="5" MethodOID="MT.OE.OESEQ" Role="Identifier"/>
        <ItemRef ItemOID="IT.OE.OETESTCD" Mandatory="Yes" OrderNumber="6" KeySequence="3" Role="Topic"/>
        <ItemRef ItemOID="IT.OE.OETEST" Mandatory="Yes" OrderNumber="7" Role="Synonym Qualifier"/>
        <ItemRef ItemOID="IT.OE.OEORRES" Mandatory="No" OrderNumber="8" Role="Result Qualifier"/>
        <ItemRef ItemOID="IT.OE.OESTRESC" Mandatory="No" OrderNumber="9" Role="Result Qualifier"/>
        <ItemRef ItemOID="IT.OE.OELOC" Mandatory="No" OrderNumber="10" KeySequence="4" Role="Record Qualifier"/>
        <ItemRef ItemOID="IT.OE.OELAT" Mandatory="No" OrderNumber="11" KeySequence="5" Role="Variable Qualifier"/>
        <ItemRef ItemOID="IT.OE.OEMETHOD" Mandatory="No" OrderNumber="12" Role="Record Qualifier"/>
        <ItemRef ItemOID="IT.OE.OELOBXFL" Mandatory="No" OrderNumber="13" MethodOID="MT.OE.OELOBXFL" Role="Record Qualifier"/>
        <ItemRef ItemOID="IT.OE.VISITNUM" Mandatory="No" OrderNumber="14" KeySequence="6" Role="Timing"/>
        <ItemRef ItemOID="IT.OE.VISIT" Mandatory="No" OrderNumber="15" Role="Timing"/>
        <ItemRef ItemOID="IT.OE.EPOCH" Mandatory="No" OrderNumber="16" MethodOID="MT.OE.EPOCH" Role="Timing"/>
        <ItemRef ItemOID="IT.OE.OEDTC" Mandatory="No" OrderNumber="17" Role="Timing"/>
        <ItemRef ItemOID="IT.OE.OEDY" Mandatory="No" OrderNumber="18" MethodOID="MT.OE.OEDY" Role="Timing"/>
        <def:Class Name="FINDINGS"/>
        <def:leaf ID="LF.OE" xlink:href="oe.xpt">
          <def:title>oe.xpt</def:title>
        </def:leaf>
      </ItemGroupDef>
      <ItemGroupDef OID="IG.QSPH" Name="QSPH" Repeating="Yes" IsReferenceData="No" SASDatasetName="QSPH" Domain="QS" Purpose="Tabulation" def:Structure="One record per questionnaire finding per visit per subject" def:CommentOID="COM.QSPH" def:ArchiveLocationID="LF.QSPH" def:StandardOID="STD.1">
        <Description>
          <TranslatedText xml:lang="en">Questionnaires (PHQ-9)</TranslatedText>
        </Description>
        <ItemRef ItemOID="IT.QSPH.STUDYID" Mandatory="Yes" OrderNumber="1" KeySequence="1" Role="Identifier"/>
        <ItemRef ItemOID="IT.QSPH.DOMAIN" Mandatory="Yes" OrderNumber="2" Role="Identifier"/>
        <ItemRef ItemOID="IT.QSPH.USUBJID" Mandatory="Yes" OrderNumber="3" KeySequence="2" Role="Identifier"/>
        <ItemRef ItemOID="IT.QSPH.QSSEQ" Mandatory="Yes" OrderNumber="4" MethodOID="MT.QSPH.QSSEQ" Role="Identifier"/>
        <ItemRef ItemOID="IT.QSPH.QSTESTCD" Mandatory="Yes" OrderNumber="5" KeySequence="3" Role="Topic"/>
        <ItemRef ItemOID="IT.QSPH.QSTEST" Mandatory="Yes" OrderNumber="6" Role="Synonym Qualifier"/>
        <ItemRef ItemOID="IT.QSPH.QSCAT" Mandatory="Yes" OrderNumber="7" Role="Grouping Qualifier"/>
        <ItemRef ItemOID="IT.QSPH.QSORRES" Mandatory="No" OrderNumber="8" Role="Result Qualifier"/>
        <ItemRef ItemOID="IT.QSPH.QSSTRESC" Mandatory="No" OrderNumber="9" Role="Result Qualifier"/>
        <ItemRef ItemOID="IT.QSPH.QSSTRESN" Mandatory="No" OrderNumber="10" MethodOID="MT.QSPH.QSSTRESN" Role="Result Qualifier"/>
        <ItemRef ItemOID="IT.QSPH.QSLOBXFL" Mandatory="No" OrderNumber="11" MethodOID="MT.QSPH.QSLOBXFL" Role="Record Qualifier"/>
        <ItemRef ItemOID="IT.QSPH.VISITNUM" Mandatory="No" OrderNumber="12" KeySequence="4" Role="Timing"/>
        <ItemRef ItemOID="IT.QSPH.VISIT" Mandatory="No" OrderNumber="13" Role="Timing"/>
        <ItemRef ItemOID="IT.QSPH.EPOCH" Mandatory="No" OrderNumber="14" MethodOID="MT.QSPH.EPOCH" Role="Timing"/>
        <ItemRef ItemOID="IT.QSPH.QSDTC" Mandatory="No" OrderNumber="15" Role="Timing"/>
        <ItemRef ItemOID="IT.QSPH.QSDY" Mandatory="No" OrderNumber="16" MethodOID="MT.QSPH.QSDY" Role="Timing"/>
        <ItemRef ItemOID="IT.QSPH.QSEVLINT" Mandatory="No" OrderNumber="17" Role="Timing"/>
        <Alias Context="DomainDescription" Name="Questionnaires"/>
        <def:Class Name="FINDINGS"/>
        <def:leaf ID="LF.QSPH" xlink:href="qsph.xpt">
          <def:title>qsph.xpt</def:title>
        </def:leaf>
      </ItemGroupDef>
      <ItemGroupDef OID="IG.QSSL" Name="QSSL" Repeating="Yes" IsReferenceData="No" SASDatasetName="QSSL" Domain="QS" Purpose="Tabulation" def:Structure="One record per questionnaire finding per visit per subject" def:CommentOID="COM.QSSL" def:ArchiveLocationID="LF.QSSL" def:StandardOID="STD.1">
        <Description>
          <TranslatedText xml:lang="en">Questionnaires (SQLS)</TranslatedText>
        </Description>
        <ItemRef ItemOID="IT.QSSL.STUDYID" Mandatory="Yes" OrderNumber="1" KeySequence="1" Role="Identifier"/>
        <ItemRef ItemOID="IT.QSSL.DOMAIN" Mandatory="Yes" OrderNumber="2" Role="Identifier"/>
        <ItemRef ItemOID="IT.QSSL.USUBJID" Mandatory="Yes" OrderNumber="3" KeySequence="2" Role="Identifier"/>
        <ItemRef ItemOID="IT.QSSL.QSSEQ" Mandatory="Yes" OrderNumber="4" MethodOID="MT.QSSL.QSSEQ" Role="Identifier"/>
        <ItemRef ItemOID="IT.QSSL.QSTESTCD" Mandatory="Yes" OrderNumber="5" KeySequence="3" Role="Topic"/>
        <ItemRef ItemOID="IT.QSSL.QSTEST" Mandatory="Yes" OrderNumber="6" Role="Synonym Qualifier"/>
        <ItemRef ItemOID="IT.QSSL.QSCAT" Mandatory="Yes" OrderNumber="7" Role="Grouping Qualifier"/>
        <ItemRef ItemOID="IT.QSSL.QSORRES" Mandatory="No" OrderNumber="8" Role="Result Qualifier"/>
        <ItemRef ItemOID="IT.QSSL.QSSTRESC" Mandatory="No" OrderNumber="9" MethodOID="MT.QSSL.QSSTRESC" Role="Result Qualifier"/>
        <ItemRef ItemOID="IT.QSSL.QSSTRESN" Mandatory="No" OrderNumber="10" MethodOID="MT.QSSL.QSSTRESN" Role="Result Qualifier"/>
        <ItemRef ItemOID="IT.QSSL.QSLOBXFL" Mandatory="No" OrderNumber="11" MethodOID="MT.QSSL.QSLOBXFL" Role="Record Qualifier"/>
        <ItemRef ItemOID="IT.QSSL.VISITNUM" Mandatory="No" OrderNumber="12" KeySequence="4" Role="Timing"/>
        <ItemRef ItemOID="IT.QSSL.VISIT" Mandatory="No" OrderNumber="13" Role="Timing"/>
        <ItemRef ItemOID="IT.QSSL.EPOCH" Mandatory="No" OrderNumber="14" MethodOID="MT.QSSL.EPOCH" Role="Timing"/>
        <ItemRef ItemOID="IT.QSSL.QSDTC" Mandatory="No" OrderNumber="15" Role="Timing"/>
        <ItemRef ItemOID="IT.QSSL.QSDY" Mandatory="No" OrderNumber="16" MethodOID="MT.QSSL.QSDY" Role="Timing"/>
        <Alias Context="DomainDescription" Name="Questionnaires"/>
        <def:Class Name="FINDINGS"/>
        <def:leaf ID="LF.QSSL" xlink:href="qssl.xpt">
          <def:title>qssl.xpt</def:title>
        </def:leaf>
      </ItemGroupDef>
      <ItemGroupDef OID="IG.RS" Name="RS" Repeating="Yes" IsReferenceData="No" SASDatasetName="RS" Domain="RS" Purpose="Tabulation" def:Structure="One record per response assessment or clinical classification assessment per time point per visit per subject per assessor per medical evaluator" def:ArchiveLocationID="LF.RS" def:StandardOID="STD.1">
        <Description>
          <TranslatedText xml:lang="en">Disease Response and Clin Classification</TranslatedText>
        </Description>
        <ItemRef ItemOID="IT.RS.STUDYID" Mandatory="Yes" OrderNumber="1" KeySequence="1" Role="Identifier"/>
        <ItemRef ItemOID="IT.RS.DOMAIN" Mandatory="Yes" OrderNumber="2" Role="Identifier"/>
        <ItemRef ItemOID="IT.RS.USUBJID" Mandatory="Yes" OrderNumber="3" KeySequence="2" Role="Identifier"/>
        <ItemRef ItemOID="IT.RS.RSSEQ" Mandatory="Yes" OrderNumber="4" MethodOID="MT.RS.RSSEQ" Role="Identifier"/>
        <ItemRef ItemOID="IT.RS.RSTESTCD" Mandatory="Yes" OrderNumber="5" KeySequence="3" Role="Topic"/>
        <ItemRef ItemOID="IT.RS.RSTEST" Mandatory="Yes" OrderNumber="6" Role="Synonym Qualifier"/>
        <ItemRef ItemOID="IT.RS.RSCAT" Mandatory="Yes" OrderNumber="7" Role="Grouping Qualifier"/>
        <ItemRef ItemOID="IT.RS.RSORRES" Mandatory="No" OrderNumber="8" Role="Result Qualifier"/>
        <ItemRef ItemOID="IT.RS.RSSTRESC" Mandatory="No" OrderNumber="9" MethodOID="MT.RS.RSSTRESC" Role="Result Qualifier"/>
        <ItemRef ItemOID="IT.RS.RSSTRESN" Mandatory="No" OrderNumber="10" MethodOID="MT.RS.RSSTRESN" Role="Result Qualifier"/>
        <ItemRef ItemOID="IT.RS.RSLOBXFL" Mandatory="No" OrderNumber="11" MethodOID="MT.RS.RSLOBXFL" Role="Record Qualifier"/>
        <ItemRef ItemOID="IT.RS.VISITNUM" Mandatory="No" OrderNumber="12" KeySequence="4" Role="Timing"/>
        <ItemRef ItemOID="IT.RS.VISIT" Mandatory="No" OrderNumber="13" Role="Timing"/>
        <ItemRef ItemOID="IT.RS.EPOCH" Mandatory="No" OrderNumber="14" MethodOID="MT.RS.EPOCH" Role="Timing"/>
        <ItemRef ItemOID="IT.RS.RSDTC" Mandatory="No" OrderNumber="15" Role="Timing"/>
        <ItemRef ItemOID="IT.RS.RSDY" Mandatory="No" OrderNumber="16" MethodOID="MT.RS.RSDY" Role="Timing"/>
        <ItemRef ItemOID="IT.RS.RSEVLINT" Mandatory="No" OrderNumber="17" Role="Timing"/>
        <def:Class Name="FINDINGS"/>
        <def:leaf ID="LF.RS" xlink:href="rs.xpt">
          <def:title>rs.xpt</def:title>
        </def:leaf>
      </ItemGroupDef>
      <ItemGroupDef OID="IG.VS" Name="VS" Repeating="Yes" IsReferenceData="No" SASDatasetName="VS" Domain="VS" Purpose="Tabulation" def:Structure="One record per vital sign measurement per visit per subject" def:ArchiveLocationID="LF.VS" def:StandardOID="STD.1">
        <Description>
          <TranslatedText xml:lang="en">Vital Signs</TranslatedText>
        </Description>
        <ItemRef ItemOID="IT.VS.STUDYID" Mandatory="Yes" OrderNumber="1" KeySequence="1" Role="Identifier"/>
        <ItemRef ItemOID="IT.VS.DOMAIN" Mandatory="Yes" OrderNumber="2" Role="Identifier"/>
        <ItemRef ItemOID="IT.VS.USUBJID" Mandatory="Yes" OrderNumber="3" KeySequence="2" Role="Identifier"/>
        <ItemRef ItemOID="IT.VS.VSSEQ" Mandatory="Yes" OrderNumber="4" MethodOID="MT.VS.VSSEQ" Role="Identifier"/>
        <ItemRef ItemOID="IT.VS.VSTESTCD" Mandatory="Yes" OrderNumber="5" KeySequence="3" Role="Topic"/>
        <ItemRef ItemOID="IT.VS.VSTEST" Mandatory="Yes" OrderNumber="6" Role="Synonym Qualifier"/>
        <ItemRef ItemOID="IT.VS.VSPOS" Mandatory="No" OrderNumber="7" KeySequence="4" Role="Record Qualifier"/>
        <ItemRef ItemOID="IT.VS.VSORRES" Mandatory="No" OrderNumber="8" Role="Result Qualifier"/>
        <ItemRef ItemOID="IT.VS.VSORRESU" Mandatory="No" OrderNumber="9" Role="Variable Qualifier"/>
        <ItemRef ItemOID="IT.VS.VSSTRESC" Mandatory="No" OrderNumber="10" MethodOID="MT.VS.VSSTRESC" Role="Result Qualifier"/>
        <ItemRef ItemOID="IT.VS.VSSTRESN" Mandatory="No" OrderNumber="11" MethodOID="MT.VS.VSSTRESN" Role="Result Qualifier"/>
        <ItemRef ItemOID="IT.VS.VSSTRESU" Mandatory="No" OrderNumber="12" Role="Variable Qualifier"/>
        <ItemRef ItemOID="IT.VS.VSSTAT" Mandatory="No" OrderNumber="13" Role="Record Qualifier" def:HasNoData="Yes"/>
        <ItemRef ItemOID="IT.VS.VSLOC" Mandatory="No" OrderNumber="14" Role="Record Qualifier"/>
        <ItemRef ItemOID="IT.VS.VSLOBXFL" Mandatory="No" OrderNumber="15" MethodOID="MT.VS.VSLOBXFL" Role="Record Qualifier"/>
        <ItemRef ItemOID="IT.VS.VSREPNUM" Mandatory="No" OrderNumber="16" KeySequence="6" Role="Record Qualifier"/>
        <ItemRef ItemOID="IT.VS.VISITNUM" Mandatory="No" OrderNumber="17" KeySequence="5" Role="Timing"/>
        <ItemRef ItemOID="IT.VS.VISIT" Mandatory="No" OrderNumber="18" Role="Timing"/>
        <ItemRef ItemOID="IT.VS.EPOCH" Mandatory="No" OrderNumber="19" MethodOID="MT.VS.EPOCH" Role="Timing"/>
        <ItemRef ItemOID="IT.VS.VSDTC" Mandatory="No" OrderNumber="20" Role="Timing"/>
        <ItemRef ItemOID="IT.VS.VSDY" Mandatory="No" OrderNumber="21" MethodOID="MT.VS.VSDY" Role="Timing"/>
        <def:Class Name="FINDINGS"/>
        <def:leaf ID="LF.VS" xlink:href="vs.xpt">
          <def:title>vs.xpt</def:title>
        </def:leaf>
      </ItemGroupDef>
      <ItemGroupDef OID="IG.FA" Name="FA" Repeating="Yes" IsReferenceData="No" SASDatasetName="FA" Domain="FA" Purpose="Tabulation" def:Structure="One record per finding per object per subject" def:CommentOID="COM.FA" def:ArchiveLocationID="LF.FA" def:StandardOID="STD.1">
        <Description>
          <TranslatedText xml:lang="en">Findings About Events or Interventions</TranslatedText>
        </Description>
        <ItemRef ItemOID="IT.FA.STUDYID" Mandatory="Yes" OrderNumber="1" KeySequence="1" Role="Identifier"/>
        <ItemRef ItemOID="IT.FA.DOMAIN" Mandatory="Yes" OrderNumber="2" Role="Identifier"/>
        <ItemRef ItemOID="IT.FA.USUBJID" Mandatory="Yes" OrderNumber="3" KeySequence="2" Role="Identifier"/>
        <ItemRef ItemOID="IT.FA.FASEQ" Mandatory="Yes" OrderNumber="4" MethodOID="MT.FA.FASEQ" Role="Identifier"/>
        <ItemRef ItemOID="IT.FA.FALNKGRP" Mandatory="No" OrderNumber="5" KeySequence="4" Role="Identifier"/>
        <ItemRef ItemOID="IT.FA.FATESTCD" Mandatory="Yes" OrderNumber="6" KeySequence="3" Role="Topic"/>
        <ItemRef ItemOID="IT.FA.FATEST" Mandatory="Yes" OrderNumber="7" Role="Synonym Qualifier"/>
        <ItemRef ItemOID="IT.FA.FAOBJ" Mandatory="Yes" OrderNumber="8" KeySequence="5" Role="Record Qualifier"/>
        <ItemRef ItemOID="IT.FA.FACAT" Mandatory="No" OrderNumber="9" Role="Grouping Qualifier"/>
        <ItemRef ItemOID="IT.FA.FAORRES" Mandatory="No" OrderNumber="10" Role="Result Qualifier"/>
        <ItemRef ItemOID="IT.FA.FASTRESC" Mandatory="No" OrderNumber="11" Role="Result Qualifier"/>
        <ItemRef ItemOID="IT.FA.FALOC" Mandatory="No" OrderNumber="12" Role="Record Qualifier"/>
        <ItemRef ItemOID="IT.FA.VISITNUM" Mandatory="No" OrderNumber="13" Role="Timing"/>
        <ItemRef ItemOID="IT.FA.EPOCH" Mandatory="No" OrderNumber="14" Role="Timing"/>
        <ItemRef ItemOID="IT.FA.FADTC" Mandatory="No" OrderNumber="15" KeySequence="6" Role="Timing"/>
        <ItemRef ItemOID="IT.FA.FADY" Mandatory="No" OrderNumber="16" MethodOID="MT.FA.FADY" Role="Timing"/>
        <def:Class Name="FINDINGS ABOUT"/>
        <def:leaf ID="LF.FA" xlink:href="fa.xpt">
          <def:title>fa.xpt</def:title>
        </def:leaf>
      </ItemGroupDef>
      <ItemGroupDef OID="IG.RELREC" Name="RELREC" Repeating="Yes" IsReferenceData="No" SASDatasetName="RELREC" Domain="RELREC" Purpose="Tabulation" def:Structure="One record per related record, group of records or dataset" def:ArchiveLocationID="LF.RELREC" def:StandardOID="STD.1">
        <Description>
          <TranslatedText xml:lang="en">Related Records</TranslatedText>
        </Description>
        <ItemRef ItemOID="IT.RELREC.STUDYID" Mandatory="Yes" OrderNumber="1" KeySequence="1" Role="Identifier"/>
        <ItemRef ItemOID="IT.RELREC.RDOMAIN" Mandatory="Yes" OrderNumber="2" KeySequence="2" Role="Identifier"/>
        <ItemRef ItemOID="IT.RELREC.USUBJID" Mandatory="No" OrderNumber="3" KeySequence="3" Role="Identifier"/>
        <ItemRef ItemOID="IT.RELREC.IDVAR" Mandatory="Yes" OrderNumber="4" KeySequence="4" Role="Identifier"/>
        <ItemRef ItemOID="IT.RELREC.IDVARVAL" Mandatory="No" OrderNumber="5" KeySequence="5" Role="Identifier"/>
        <ItemRef ItemOID="IT.RELREC.RELTYPE" Mandatory="No" OrderNumber="6" Role="Record Qualifier"/>
        <ItemRef ItemOID="IT.RELREC.RELID" Mandatory="Yes" OrderNumber="7" KeySequence="6" Role="Record Qualifier"/>
        <def:Class Name="RELATIONSHIP"/>
        <def:leaf ID="LF.RELREC" xlink:href="relrec.xpt">
          <def:title>relrec.xpt</def:title>
        </def:leaf>
      </ItemGroupDef>
      <ItemGroupDef OID="IG.SUPPDM" Name="SUPPDM" Repeating="Yes" IsReferenceData="No" SASDatasetName="SUPPDM" Domain="DM" Purpose="Tabulation" def:Structure="One record per IDVAR, IDVARVAL, and QNAM value per subject" def:ArchiveLocationID="LF.SUPPDM" def:StandardOID="STD.1">
        <Description>
          <TranslatedText xml:lang="en">Supplemental Qualifiers for DM</TranslatedText>
        </Description>
        <ItemRef ItemOID="IT.SUPPDM.STUDYID" Mandatory="Yes" OrderNumber="1" KeySequence="1" Role="Identifier"/>
        <ItemRef ItemOID="IT.SUPPDM.RDOMAIN" Mandatory="Yes" OrderNumber="2" KeySequence="2" Role="Identifier"/>
        <ItemRef ItemOID="IT.SUPPDM.USUBJID" Mandatory="Yes" OrderNumber="3" KeySequence="3" Role="Identifier"/>
        <ItemRef ItemOID="IT.SUPPDM.IDVAR" Mandatory="No" OrderNumber="4" KeySequence="4" Role="Identifier"/>
        <ItemRef ItemOID="IT.SUPPDM.IDVARVAL" Mandatory="No" OrderNumber="5" KeySequence="5" Role="Identifier"/>
        <ItemRef ItemOID="IT.SUPPDM.QNAM" Mandatory="Yes" OrderNumber="6" KeySequence="6" Role="Topic"/>
        <ItemRef ItemOID="IT.SUPPDM.QLABEL" Mandatory="Yes" OrderNumber="7" Role="Synonym Qualifier"/>
        <ItemRef ItemOID="IT.SUPPDM.QVAL" Mandatory="Yes" OrderNumber="8" Role="Result Qualifier"/>
        <ItemRef ItemOID="IT.SUPPDM.QORIG" Mandatory="Yes" OrderNumber="9" Role="Record Qualifier"/>
        <ItemRef ItemOID="IT.SUPPDM.QEVAL" Mandatory="No" OrderNumber="10" Role="Record Qualifier"/>
        <Alias Context="DomainDescription" Name="Demographics"/>
        <def:Class Name="RELATIONSHIP"/>
        <def:leaf ID="LF.SUPPDM" xlink:href="suppdm.xpt">
          <def:title>suppdm.xpt</def:title>
        </def:leaf>
      </ItemGroupDef>
      <ItemGroupDef OID="IG.SUPPEC" Name="SUPPEC" Repeating="Yes" IsReferenceData="No" SASDatasetName="SUPPEC" Domain="EC" Purpose="Tabulation" def:Structure="One record per IDVAR, IDVARVAL, and QNAM value per subject" def:ArchiveLocationID="LF.SUPPEC" def:StandardOID="STD.1">
        <Description>
          <TranslatedText xml:lang="en">Supplemental Qualifiers for EC</TranslatedText>
        </Description>
        <ItemRef ItemOID="IT.SUPPEC.STUDYID" Mandatory="Yes" OrderNumber="1" KeySequence="1" Role="Identifier"/>
        <ItemRef ItemOID="IT.SUPPEC.RDOMAIN" Mandatory="Yes" OrderNumber="2" KeySequence="2" Role="Identifier"/>
        <ItemRef ItemOID="IT.SUPPEC.USUBJID" Mandatory="Yes" OrderNumber="3" KeySequence="3" Role="Identifier"/>
        <ItemRef ItemOID="IT.SUPPEC.IDVAR" Mandatory="No" OrderNumber="4" KeySequence="4" Role="Identifier"/>
        <ItemRef ItemOID="IT.SUPPEC.IDVARVAL" Mandatory="No" OrderNumber="5" KeySequence="5" Role="Identifier"/>
        <ItemRef ItemOID="IT.SUPPEC.QNAM" Mandatory="Yes" OrderNumber="6" KeySequence="6" Role="Topic"/>
        <ItemRef ItemOID="IT.SUPPEC.QLABEL" Mandatory="Yes" OrderNumber="7" Role="Synonym Qualifier"/>
        <ItemRef ItemOID="IT.SUPPEC.QVAL" Mandatory="Yes" OrderNumber="8" Role="Result Qualifier"/>
        <ItemRef ItemOID="IT.SUPPEC.QORIG" Mandatory="Yes" OrderNumber="9" Role="Record Qualifier"/>
        <ItemRef ItemOID="IT.SUPPEC.QEVAL" Mandatory="No" OrderNumber="10" Role="Record Qualifier"/>
        <Alias Context="DomainDescription" Name="Exposure as Collected"/>
        <def:Class Name="RELATIONSHIP"/>
        <def:leaf ID="LF.SUPPEC" xlink:href="suppec.xpt">
          <def:title>suppec.xpt</def:title>
        </def:leaf>
      </ItemGroupDef>
      <ItemGroupDef OID="IG.SUPPNV" Name="SUPPNV" Repeating="Yes" IsReferenceData="No" SASDatasetName="SUPPNV" Domain="NV" Purpose="Tabulation" def:Structure="One record per IDVAR, IDVARVAL, and QNAM value per subject" def:CommentOID="COM.SUPPNV" def:StandardOID="STD.1" def:HasNoData="Yes">
        <Description>
          <TranslatedText xml:lang="en">Supplemental Qualifiers for NV</TranslatedText>
        </Description>
        <ItemRef ItemOID="IT.SUPPNV.STUDYID" Mandatory="Yes" OrderNumber="1" KeySequence="1" Role="Identifier"/>
        <ItemRef ItemOID="IT.SUPPNV.RDOMAIN" Mandatory="Yes" OrderNumber="2" KeySequence="2" Role="Identifier"/>
        <ItemRef ItemOID="IT.SUPPNV.USUBJID" Mandatory="Yes" OrderNumber="3" KeySequence="3" Role="Identifier"/>
        <ItemRef ItemOID="IT.SUPPNV.IDVAR" Mandatory="No" OrderNumber="4" KeySequence="4" Role="Identifier"/>
        <ItemRef ItemOID="IT.SUPPNV.IDVARVAL" Mandatory="No" OrderNumber="5" KeySequence="5" Role="Identifier"/>
        <ItemRef ItemOID="IT.SUPPNV.QNAM" Mandatory="Yes" OrderNumber="6" KeySequence="6" Role="Topic"/>
        <ItemRef ItemOID="IT.SUPPNV.QLABEL" Mandatory="Yes" OrderNumber="7" Role="Synonym Qualifier"/>
        <ItemRef ItemOID="IT.SUPPNV.QVAL" Mandatory="Yes" OrderNumber="8" Role="Result Qualifier"/>
        <ItemRef ItemOID="IT.SUPPNV.QORIG" Mandatory="Yes" OrderNumber="9" Role="Record Qualifier"/>
        <ItemRef ItemOID="IT.SUPPNV.QEVAL" Mandatory="No" OrderNumber="10" Role="Record Qualifier"/>
        <Alias Context="DomainDescription" Name="Nervous System Findings"/>
        <def:Class Name="RELATIONSHIP"/>
      </ItemGroupDef>
      <ItemGroupDef OID="IG.SUPPOE" Name="SUPPOE" Repeating="Yes" IsReferenceData="No" SASDatasetName="SUPPOE" Domain="OE" Purpose="Tabulation" def:Structure="One record per IDVAR, IDVARVAL, and QNAM value per subject" def:CommentOID="COM.SUPPOE" def:StandardOID="STD.1" def:HasNoData="Yes">
        <Description>
          <TranslatedText xml:lang="en">Supplemental Qualifiers for OE</TranslatedText>
        </Description>
        <ItemRef ItemOID="IT.SUPPOE.STUDYID" Mandatory="Yes" OrderNumber="1" KeySequence="1" Role="Identifier"/>
        <ItemRef ItemOID="IT.SUPPOE.RDOMAIN" Mandatory="Yes" OrderNumber="2" KeySequence="2" Role="Identifier"/>
        <ItemRef ItemOID="IT.SUPPOE.USUBJID" Mandatory="Yes" OrderNumber="3" KeySequence="3" Role="Identifier"/>
        <ItemRef ItemOID="IT.SUPPOE.IDVAR" Mandatory="No" OrderNumber="4" KeySequence="4" Role="Identifier"/>
        <ItemRef ItemOID="IT.SUPPOE.IDVARVAL" Mandatory="No" OrderNumber="5" KeySequence="5" Role="Identifier"/>
        <ItemRef ItemOID="IT.SUPPOE.QNAM" Mandatory="Yes" OrderNumber="6" KeySequence="6" Role="Topic"/>
        <ItemRef ItemOID="IT.SUPPOE.QLABEL" Mandatory="Yes" OrderNumber="7" Role="Synonym Qualifier"/>
        <ItemRef ItemOID="IT.SUPPOE.QVAL" Mandatory="Yes" OrderNumber="8" Role="Result Qualifier"/>
        <ItemRef ItemOID="IT.SUPPOE.QORIG" Mandatory="Yes" OrderNumber="9" Role="Record Qualifier"/>
        <ItemRef ItemOID="IT.SUPPOE.QEVAL" Mandatory="No" OrderNumber="10" Role="Record Qualifier"/>
        <Alias Context="DomainDescription" Name="Ophthalmic Examinations"/>
        <def:Class Name="RELATIONSHIP"/>
      </ItemGroupDef>
      <ItemGroupDef OID="IG.DI" Name="DI" Repeating="No" IsReferenceData="Yes" SASDatasetName="DI" Domain="DI" Purpose="Tabulation" def:Structure="One record per device identifier per device" def:ArchiveLocationID="LF.DI" def:StandardOID="STD.2">
        <Description>
          <TranslatedText xml:lang="en">Device Identifiers</TranslatedText>
        </Description>
        <ItemRef ItemOID="IT.DI.STUDYID" Mandatory="Yes" OrderNumber="1" KeySequence="1" Role="Identifier"/>
        <ItemRef ItemOID="IT.DI.DOMAIN" Mandatory="Yes" OrderNumber="2" Role="Identifier"/>
        <ItemRef ItemOID="IT.DI.SPDEVID" Mandatory="Yes" OrderNumber="3" KeySequence="2" Role="Identifier"/>
        <ItemRef ItemOID="IT.DI.DISEQ" Mandatory="Yes" OrderNumber="4" MethodOID="MT.DI.DISEQ" Role="Identifier"/>
        <ItemRef ItemOID="IT.DI.DIPARMCD" Mandatory="Yes" OrderNumber="5" KeySequence="3" Role="Topic"/>
        <ItemRef ItemOID="IT.DI.DIPARM" Mandatory="Yes" OrderNumber="6" Role="Synonym Qualifier"/>
        <ItemRef ItemOID="IT.DI.DIVAL" Mandatory="Yes" OrderNumber="7" Role="Result Qualifier"/>
        <def:Class Name="STUDY REFERENCE"/>
        <def:leaf ID="LF.DI" xlink:href="di.xpt">
          <def:title>di.xpt</def:title>
        </def:leaf>
      </ItemGroupDef>
      <ItemDef OID="IT.AE.AEACN" Name="AEACN" DataType="text" Length="16" SASFieldName="AEACN">
        <Description>
          <TranslatedText xml:lang="en">Action Taken with Study Treatment</TranslatedText>
        </Description>
        <CodeListRef CodeListOID="CL.ACN"/>
        <def:Origin Type="Collected" Source="Investigator">
          <def:DocumentRef leafID="LF.acrf.001">
            <def:PDFPageRef PageRefs="22 23" Type="PhysicalRef"/>
          </def:DocumentRef>
        </def:Origin>
      </ItemDef>
      <ItemDef OID="IT.AE.AEBDSYCD" Name="AEBDSYCD" DataType="text" Length="1" SASFieldName="AEBDSYCD" def:CommentOID="COM.AE.AEBDSYCD">
        <Description>
          <TranslatedText xml:lang="en">Body System or Organ Class Code</TranslatedText>
        </Description>
        <CodeListRef CodeListOID="CL.MEDDRA"/>
        <def:Origin Type="Assigned" Source="Sponsor"/>
      </ItemDef>
      <ItemDef OID="IT.AE.AEBODSYS" Name="AEBODSYS" DataType="text" Length="1" SASFieldName="AEBODSYS" def:CommentOID="COM.AE.AEBODSYS">
        <Description>
          <TranslatedText xml:lang="en">Body System or Organ Class</TranslatedText>
        </Description>
        <CodeListRef CodeListOID="CL.MEDDRA"/>
        <def:Origin Type="Assigned" Source="Sponsor"/>
      </ItemDef>
      <ItemDef OID="IT.AE.AEDECOD" Name="AEDECOD" DataType="text" Length="1" SASFieldName="AEDECOD" def:CommentOID="COM.AE.AEDECOD">
        <Description>
          <TranslatedText xml:lang="en">Dictionary-Derived Term</TranslatedText>
        </Description>
        <CodeListRef CodeListOID="CL.MEDDRA"/>
        <def:Origin Type="Assigned" Source="Sponsor"/>
      </ItemDef>
      <ItemDef OID="IT.AE.AEENDTC" Name="AEENDTC" DataType="date" SASFieldName="AEENDTC">
        <Description>
          <TranslatedText xml:lang="en">End Date/Time of Adverse Event</TranslatedText>
        </Description>
        <def:Origin Type="Collected" Source="Investigator">
          <def:DocumentRef leafID="LF.acrf.001">
            <def:PDFPageRef PageRefs="22 23" Type="PhysicalRef"/>
          </def:DocumentRef>
        </def:Origin>
      </ItemDef>
      <ItemDef OID="IT.AE.AEENDY" Name="AEENDY" DataType="integer" Length="8" SASFieldName="AEENDY">
        <Description>
          <TranslatedText xml:lang="en">Study Day of End of Adverse Event</TranslatedText>
        </Description>
        <def:Origin Type="Derived" Source="Sponsor"/>
      </ItemDef>
      <ItemDef OID="IT.AE.AEENRTPT" Name="AEENRTPT" DataType="text" Length="7" SASFieldName="AEENRTPT">
        <Description>
          <TranslatedText xml:lang="en">End Relative to Reference Time Point</TranslatedText>
        </Description>
        <CodeListRef CodeListOID="CL.ENRTPT_CM_AE"/>
        <def:Origin Type="Collected" Source="Investigator">
          <def:DocumentRef leafID="LF.acrf.001">
            <def:PDFPageRef PageRefs="22 23" Type="PhysicalRef"/>
          </def:DocumentRef>
        </def:Origin>
      </ItemDef>
      <ItemDef OID="IT.AE.AEENTPT" Name="AEENTPT" DataType="date" SASFieldName="AEENTPT">
        <Description>
          <TranslatedText xml:lang="en">End Reference Time Point</TranslatedText>
        </Description>
        <def:Origin Type="Derived" Source="Sponsor"/>
      </ItemDef>
      <ItemDef OID="IT.AE.AEHLGT" Name="AEHLGT" DataType="text" Length="1" SASFieldName="AEHLGT" def:CommentOID="COM.AE.AEHLGT">
        <Description>
          <TranslatedText xml:lang="en">High Level Group Term</TranslatedText>
        </Description>
        <CodeListRef CodeListOID="CL.MEDDRA"/>
        <def:Origin Type="Assigned" Source="Sponsor"/>
      </ItemDef>
      <ItemDef OID="IT.AE.AEHLGTCD" Name="AEHLGTCD" DataType="text" Length="1" SASFieldName="AEHLGTCD" def:CommentOID="COM.AE.AEHLGTCD">
        <Description>
          <TranslatedText xml:lang="en">High Level Group Term Code</TranslatedText>
        </Description>
        <CodeListRef CodeListOID="CL.MEDDRA"/>
        <def:Origin Type="Assigned" Source="Sponsor"/>
      </ItemDef>
      <ItemDef OID="IT.AE.AEHLT" Name="AEHLT" DataType="text" Length="1" SASFieldName="AEHLT" def:CommentOID="COM.AE.AEHLT">
        <Description>
          <TranslatedText xml:lang="en">High Level Term</TranslatedText>
        </Description>
        <CodeListRef CodeListOID="CL.MEDDRA"/>
        <def:Origin Type="Assigned" Source="Sponsor"/>
      </ItemDef>
      <ItemDef OID="IT.AE.AEHLTCD" Name="AEHLTCD" DataType="text" Length="1" SASFieldName="AEHLTCD" def:CommentOID="COM.AE.AEHLTCD">
        <Description>
          <TranslatedText xml:lang="en">High Level Term Code</TranslatedText>
        </Description>
        <CodeListRef CodeListOID="CL.MEDDRA"/>
        <def:Origin Type="Assigned" Source="Sponsor"/>
      </ItemDef>
      <ItemDef OID="IT.AE.AELLT" Name="AELLT" DataType="text" Length="1" SASFieldName="AELLT" def:CommentOID="COM.AE.AELLT">
        <Description>
          <TranslatedText xml:lang="en">Lowest Level Term</TranslatedText>
        </Description>
        <CodeListRef CodeListOID="CL.MEDDRA"/>
        <def:Origin Type="Assigned" Source="Sponsor"/>
      </ItemDef>
      <ItemDef OID="IT.AE.AELLTCD" Name="AELLTCD" DataType="text" Length="1" SASFieldName="AELLTCD" def:CommentOID="COM.AE.AELLTCD">
        <Description>
          <TranslatedText xml:lang="en">Lowest Level Term Code</TranslatedText>
        </Description>
        <CodeListRef CodeListOID="CL.MEDDRA"/>
        <def:Origin Type="Assigned" Source="Sponsor"/>
      </ItemDef>
      <ItemDef OID="IT.AE.AELNKID" Name="AELNKID" DataType="text" Length="50" SASFieldName="AELNKID">
        <Description>
          <TranslatedText xml:lang="en">Link ID</TranslatedText>
        </Description>
        <def:Origin Type="Collected" Source="Investigator">
          <def:DocumentRef leafID="LF.acrf.001">
            <def:PDFPageRef PageRefs="22 23" Type="PhysicalRef"/>
          </def:DocumentRef>
        </def:Origin>
      </ItemDef>
      <ItemDef OID="IT.AE.AEOUT" Name="AEOUT" DataType="text" Length="32" SASFieldName="AEOUT">
        <Description>
          <TranslatedText xml:lang="en">Outcome of Adverse Event</TranslatedText>
        </Description>
        <CodeListRef CodeListOID="CL.OUT"/>
        <def:Origin Type="Collected" Source="Investigator">
          <def:DocumentRef leafID="LF.acrf.001">
            <def:PDFPageRef PageRefs="22 23" Type="PhysicalRef"/>
          </def:DocumentRef>
        </def:Origin>
      </ItemDef>
      <ItemDef OID="IT.AE.AEPTCD" Name="AEPTCD" DataType="text" Length="1" SASFieldName="AEPTCD" def:CommentOID="COM.AE.AEPTCD">
        <Description>
          <TranslatedText xml:lang="en">Preferred Term Code</TranslatedText>
        </Description>
        <CodeListRef CodeListOID="CL.MEDDRA"/>
        <def:Origin Type="Assigned" Source="Sponsor"/>
      </ItemDef>
      <ItemDef OID="IT.AE.AEREL" Name="AEREL" DataType="text" Length="16" SASFieldName="AEREL">
        <Description>
          <TranslatedText xml:lang="en">Causality</TranslatedText>
        </Description>
        <CodeListRef CodeListOID="CL.AEREL"/>
        <def:Origin Type="Collected" Source="Investigator">
          <def:DocumentRef leafID="LF.acrf.001">
            <def:PDFPageRef PageRefs="22 23" Type="PhysicalRef"/>
          </def:DocumentRef>
        </def:Origin>
      </ItemDef>
      <ItemDef OID="IT.AE.AESCAN" Name="AESCAN" DataType="text" Length="1" SASFieldName="AESCAN">
        <Description>
          <TranslatedText xml:lang="en">Involves Cancer</TranslatedText>
        </Description>
        <CodeListRef CodeListOID="CL.NY_NY"/>
        <def:Origin Type="Collected" Source="Investigator">
          <def:DocumentRef leafID="LF.acrf.001">
            <def:PDFPageRef PageRefs="22 23" Type="PhysicalRef"/>
          </def:DocumentRef>
        </def:Origin>
      </ItemDef>
      <ItemDef OID="IT.AE.AESCONG" Name="AESCONG" DataType="text" Length="1" SASFieldName="AESCONG">
        <Description>
          <TranslatedText xml:lang="en">Congenital Anomaly or Birth Defect</TranslatedText>
        </Description>
        <CodeListRef CodeListOID="CL.NY_NY"/>
        <def:Origin Type="Collected" Source="Investigator">
          <def:DocumentRef leafID="LF.acrf.001">
            <def:PDFPageRef PageRefs="22 23" Type="PhysicalRef"/>
          </def:DocumentRef>
        </def:Origin>
      </ItemDef>
      <ItemDef OID="IT.AE.AESDISAB" Name="AESDISAB" DataType="text" Length="1" SASFieldName="AESDISAB">
        <Description>
          <TranslatedText xml:lang="en">Persist or Signif Disability/Incapacity</TranslatedText>
        </Description>
        <CodeListRef CodeListOID="CL.NY_NY"/>
        <def:Origin Type="Collected" Source="Investigator">
          <def:DocumentRef leafID="LF.acrf.001">
            <def:PDFPageRef PageRefs="22 23" Type="PhysicalRef"/>
          </def:DocumentRef>
        </def:Origin>
      </ItemDef>
      <ItemDef OID="IT.AE.AESDTH" Name="AESDTH" DataType="text" Length="1" SASFieldName="AESDTH">
        <Description>
          <TranslatedText xml:lang="en">Results in Death</TranslatedText>
        </Description>
        <CodeListRef CodeListOID="CL.NY_NY"/>
        <def:Origin Type="Collected" Source="Investigator">
          <def:DocumentRef leafID="LF.acrf.001">
            <def:PDFPageRef PageRefs="22 23" Type="PhysicalRef"/>
          </def:DocumentRef>
        </def:Origin>
      </ItemDef>
      <ItemDef OID="IT.AE.AESEQ" Name="AESEQ" DataType="integer" Length="3" SASFieldName="AESEQ">
        <Description>
          <TranslatedText xml:lang="en">Sequence Number</TranslatedText>
        </Description>
        <def:Origin Type="Derived" Source="Sponsor"/>
      </ItemDef>
      <ItemDef OID="IT.AE.AESER" Name="AESER" DataType="text" Length="1" SASFieldName="AESER" def:CommentOID="COM.AE.AESER">
        <Description>
          <TranslatedText xml:lang="en">Serious Event</TranslatedText>
        </Description>
        <CodeListRef CodeListOID="CL.NY_NY"/>
        <def:Origin Type="Collected" Source="Investigator">
          <def:DocumentRef leafID="LF.acrf.001">
            <def:PDFPageRef PageRefs="22 23" Type="PhysicalRef"/>
          </def:DocumentRef>
        </def:Origin>
      </ItemDef>
      <ItemDef OID="IT.AE.AESEV" Name="AESEV" DataType="text" Length="8" SASFieldName="AESEV">
        <Description>
          <TranslatedText xml:lang="en">Severity/Intensity</TranslatedText>
        </Description>
        <CodeListRef CodeListOID="CL.AESEV"/>
        <def:Origin Type="Collected" Source="Investigator">
          <def:DocumentRef leafID="LF.acrf.001">
            <def:PDFPageRef PageRefs="22 23" Type="PhysicalRef"/>
          </def:DocumentRef>
        </def:Origin>
      </ItemDef>
      <ItemDef OID="IT.AE.AESHOSP" Name="AESHOSP" DataType="text" Length="1" SASFieldName="AESHOSP">
        <Description>
          <TranslatedText xml:lang="en">Requires or Prolongs Hospitalization</TranslatedText>
        </Description>
        <CodeListRef CodeListOID="CL.NY_NY"/>
        <def:Origin Type="Collected" Source="Investigator">
          <def:DocumentRef leafID="LF.acrf.001">
            <def:PDFPageRef PageRefs="22 23" Type="PhysicalRef"/>
          </def:DocumentRef>
        </def:Origin>
      </ItemDef>
      <ItemDef OID="IT.AE.AESLIFE" Name="AESLIFE" DataType="text" Length="1" SASFieldName="AESLIFE">
        <Description>
          <TranslatedText xml:lang="en">Is Life Threatening</TranslatedText>
        </Description>
        <CodeListRef CodeListOID="CL.NY_NY"/>
        <def:Origin Type="Collected" Source="Investigator">
          <def:DocumentRef leafID="LF.acrf.001">
            <def:PDFPageRef PageRefs="22 23" Type="PhysicalRef"/>
          </def:DocumentRef>
        </def:Origin>
      </ItemDef>
      <ItemDef OID="IT.AE.AESOC" Name="AESOC" DataType="text" Length="1" SASFieldName="AESOC" def:CommentOID="COM.AE.AESOC">
        <Description>
          <TranslatedText xml:lang="en">Primary System Organ Class</TranslatedText>
        </Description>
        <CodeListRef CodeListOID="CL.MEDDRA"/>
        <def:Origin Type="Assigned" Source="Sponsor"/>
      </ItemDef>
      <ItemDef OID="IT.AE.AESOCCD" Name="AESOCCD" DataType="text" Length="1" SASFieldName="AESOCCD" def:CommentOID="COM.AE.AESOCCD">
        <Description>
          <TranslatedText xml:lang="en">Primary System Organ Class Code</TranslatedText>
        </Description>
        <CodeListRef CodeListOID="CL.MEDDRA"/>
        <def:Origin Type="Assigned" Source="Sponsor"/>
      </ItemDef>
      <ItemDef OID="IT.AE.AESOD" Name="AESOD" DataType="text" Length="1" SASFieldName="AESOD">
        <Description>
          <TranslatedText xml:lang="en">Occurred with Overdose</TranslatedText>
        </Description>
        <CodeListRef CodeListOID="CL.NY_NY"/>
        <def:Origin Type="Collected" Source="Investigator">
          <def:DocumentRef leafID="LF.acrf.001">
            <def:PDFPageRef PageRefs="22 23" Type="PhysicalRef"/>
          </def:DocumentRef>
        </def:Origin>
      </ItemDef>
      <ItemDef OID="IT.AE.AESTDTC" Name="AESTDTC" DataType="date" SASFieldName="AESTDTC">
        <Description>
          <TranslatedText xml:lang="en">Start Date/Time of Adverse Event</TranslatedText>
        </Description>
        <def:Origin Type="Collected" Source="Investigator">
          <def:DocumentRef leafID="LF.acrf.001">
            <def:PDFPageRef PageRefs="22 23" Type="PhysicalRef"/>
          </def:DocumentRef>
        </def:Origin>
      </ItemDef>
      <ItemDef OID="IT.AE.AESTDY" Name="AESTDY" DataType="integer" Length="8" SASFieldName="AESTDY">
        <Description>
          <TranslatedText xml:lang="en">Study Day of Start of Adverse Event</TranslatedText>
        </Description>
        <def:Origin Type="Derived" Source="Sponsor"/>
      </ItemDef>
      <ItemDef OID="IT.AE.AETERM" Name="AETERM" DataType="text" Length="200" SASFieldName="AETERM">
        <Description>
          <TranslatedText xml:lang="en">Reported Term for the Adverse Event</TranslatedText>
        </Description>
        <def:ValueListRef ValueListOID="VL.AE.AETERM"/>
      </ItemDef>
      <ItemDef OID="IT.AE.DOMAIN" Name="DOMAIN" DataType="text" Length="2" SASFieldName="DOMAIN">
        <Description>
          <TranslatedText xml:lang="en">Domain Abbreviation</TranslatedText>
        </Description>
        <CodeListRef CodeListOID="CL.DOMAIN_AE"/>
        <def:Origin Type="Assigned" Source="Sponsor"/>
      </ItemDef>
      <ItemDef OID="IT.AE.EPOCH" Name="EPOCH" DataType="text" Length="9" SASFieldName="EPOCH">
        <Description>
          <TranslatedText xml:lang="en">Epoch</TranslatedText>
        </Description>
        <CodeListRef CodeListOID="CL.EPOCH"/>
        <def:Origin Type="Derived" Source="Sponsor"/>
      </ItemDef>
      <ItemDef OID="IT.AE.STUDYID" Name="STUDYID" DataType="text" Length="12" SASFieldName="STUDYID">
        <Description>
          <TranslatedText xml:lang="en">Study Identifier</TranslatedText>
        </Description>
        <def:Origin Type="Protocol" Source="Sponsor"/>
      </ItemDef>
      <ItemDef OID="IT.AE.USUBJID" Name="USUBJID" DataType="text" Length="8" SASFieldName="USUBJID">
        <Description>
          <TranslatedText xml:lang="en">Unique Subject Identifier</TranslatedText>
        </Description>
        <def:Origin Type="Assigned" Source="Sponsor"/>
      </ItemDef>
      <ItemDef OID="IT.CM.CMDOSE" Name="CMDOSE" DataType="float" Length="5" SignificantDigits="3" SASFieldName="CMDOSE">
        <Description>
          <TranslatedText xml:lang="en">Dose per Administration</TranslatedText>
        </Description>
        <def:Origin Type="Collected" Source="Investigator">
          <def:DocumentRef leafID="LF.acrf.001">
            <def:PDFPageRef PageRefs="25" Type="PhysicalRef"/>
          </def:DocumentRef>
        </def:Origin>
      </ItemDef>
      <ItemDef OID="IT.CM.CMDOSFRQ" Name="CMDOSFRQ" DataType="text" Length="3" SASFieldName="CMDOSFRQ">
        <Description>
          <TranslatedText xml:lang="en">Dosing Frequency per Interval</TranslatedText>
        </Description>
        <CodeListRef CodeListOID="CL.FREQ_CM"/>
        <def:Origin Type="Collected" Source="Investigator">
          <def:DocumentRef leafID="LF.acrf.001">
            <def:PDFPageRef PageRefs="25" Type="PhysicalRef"/>
          </def:DocumentRef>
        </def:Origin>
      </ItemDef>
      <ItemDef OID="IT.CM.CMDOSU" Name="CMDOSU" DataType="text" Length="6" SASFieldName="CMDOSU">
        <Description>
          <TranslatedText xml:lang="en">Dose Units</TranslatedText>
        </Description>
        <CodeListRef CodeListOID="CL.UNIT_CM"/>
        <def:Origin Type="Collected" Source="Investigator">
          <def:DocumentRef leafID="LF.acrf.001">
            <def:PDFPageRef PageRefs="25" Type="PhysicalRef"/>
          </def:DocumentRef>
        </def:Origin>
      </ItemDef>
      <ItemDef OID="IT.CM.CMENDTC" Name="CMENDTC" DataType="partialDate" SASFieldName="CMENDTC">
        <Description>
          <TranslatedText xml:lang="en">End Date/Time of Medication</TranslatedText>
        </Description>
        <def:Origin Type="Collected" Source="Investigator">
          <def:DocumentRef leafID="LF.acrf.001">
            <def:PDFPageRef PageRefs="25" Type="PhysicalRef"/>
          </def:DocumentRef>
        </def:Origin>
      </ItemDef>
      <ItemDef OID="IT.CM.CMENDY" Name="CMENDY" DataType="integer" Length="8" SASFieldName="CMENDY">
        <Description>
          <TranslatedText xml:lang="en">Study Day of End of Medication</TranslatedText>
        </Description>
        <def:Origin Type="Derived" Source="Sponsor"/>
      </ItemDef>
      <ItemDef OID="IT.CM.CMENRTPT" Name="CMENRTPT" DataType="text" Length="7" SASFieldName="CMENRTPT">
        <Description>
          <TranslatedText xml:lang="en">End Relative to Reference Time Point</TranslatedText>
        </Description>
        <CodeListRef CodeListOID="CL.ENRTPT_CM_AE"/>
        <def:Origin Type="Collected" Source="Investigator">
          <def:DocumentRef leafID="LF.acrf.001">
            <def:PDFPageRef PageRefs="25" Type="PhysicalRef"/>
          </def:DocumentRef>
        </def:Origin>
      </ItemDef>
      <ItemDef OID="IT.CM.CMENTPT" Name="CMENTPT" DataType="date" SASFieldName="CMENTPT">
        <Description>
          <TranslatedText xml:lang="en">End Reference Time Point</TranslatedText>
        </Description>
        <def:Origin Type="Derived" Source="Sponsor"/>
      </ItemDef>
      <ItemDef OID="IT.CM.CMINDC" Name="CMINDC" DataType="text" Length="200" SASFieldName="CMINDC" def:CommentOID="COM.CM.CMINDC">
        <Description>
          <TranslatedText xml:lang="en">Indication</TranslatedText>
        </Description>
        <def:Origin Type="Collected" Source="Investigator">
          <def:DocumentRef leafID="LF.acrf.001">
            <def:PDFPageRef PageRefs="25" Type="PhysicalRef"/>
          </def:DocumentRef>
        </def:Origin>
      </ItemDef>
      <ItemDef OID="IT.CM.CMROUTE" Name="CMROUTE" DataType="text" Length="24" SASFieldName="CMROUTE">
        <Description>
          <TranslatedText xml:lang="en">Route of Administration</TranslatedText>
        </Description>
        <CodeListRef CodeListOID="CL.ROUTE_CM"/>
        <def:Origin Type="Collected" Source="Investigator">
          <def:DocumentRef leafID="LF.acrf.001">
            <def:PDFPageRef PageRefs="25" Type="PhysicalRef"/>
          </def:DocumentRef>
        </def:Origin>
      </ItemDef>
      <ItemDef OID="IT.CM.CMSEQ" Name="CMSEQ" DataType="integer" Length="3" SASFieldName="CMSEQ">
        <Description>
          <TranslatedText xml:lang="en">Sequence Number</TranslatedText>
        </Description>
        <def:Origin Type="Derived" Source="Sponsor"/>
      </ItemDef>
      <ItemDef OID="IT.CM.CMSTDTC" Name="CMSTDTC" DataType="partialDate" SASFieldName="CMSTDTC">
        <Description>
          <TranslatedText xml:lang="en">Start Date/Time of Medication</TranslatedText>
        </Description>
        <def:Origin Type="Collected" Source="Investigator">
          <def:DocumentRef leafID="LF.acrf.001">
            <def:PDFPageRef PageRefs="25" Type="PhysicalRef"/>
          </def:DocumentRef>
        </def:Origin>
      </ItemDef>
      <ItemDef OID="IT.CM.CMSTDY" Name="CMSTDY" DataType="integer" Length="8" SASFieldName="CMSTDY">
        <Description>
          <TranslatedText xml:lang="en">Study Day of Start of Medication</TranslatedText>
        </Description>
        <def:Origin Type="Derived" Source="Sponsor"/>
      </ItemDef>
      <ItemDef OID="IT.CM.CMTRT" Name="CMTRT" DataType="text" Length="200" SASFieldName="CMTRT">
        <Description>
          <TranslatedText xml:lang="en">Reported Name of Drug, Med, or Therapy</TranslatedText>
        </Description>
        <def:Origin Type="Collected" Source="Investigator">
          <def:DocumentRef leafID="LF.acrf.001">
            <def:PDFPageRef PageRefs="25" Type="PhysicalRef"/>
          </def:DocumentRef>
        </def:Origin>
      </ItemDef>
      <ItemDef OID="IT.CM.DOMAIN" Name="DOMAIN" DataType="text" Length="2" SASFieldName="DOMAIN">
        <Description>
          <TranslatedText xml:lang="en">Domain Abbreviation</TranslatedText>
        </Description>
        <CodeListRef CodeListOID="CL.DOMAIN_CM"/>
        <def:Origin Type="Assigned" Source="Sponsor"/>
      </ItemDef>
      <ItemDef OID="IT.CM.EPOCH" Name="EPOCH" DataType="text" Length="9" SASFieldName="EPOCH">
        <Description>
          <TranslatedText xml:lang="en">Epoch</TranslatedText>
        </Description>
        <CodeListRef CodeListOID="CL.EPOCH"/>
        <def:Origin Type="Derived" Source="Sponsor"/>
      </ItemDef>
      <ItemDef OID="IT.CM.STUDYID" Name="STUDYID" DataType="text" Length="12" SASFieldName="STUDYID">
        <Description>
          <TranslatedText xml:lang="en">Study Identifier</TranslatedText>
        </Description>
        <def:Origin Type="Protocol" Source="Sponsor"/>
      </ItemDef>
      <ItemDef OID="IT.CM.USUBJID" Name="USUBJID" DataType="text" Length="8" SASFieldName="USUBJID">
        <Description>
          <TranslatedText xml:lang="en">Unique Subject Identifier</TranslatedText>
        </Description>
        <def:Origin Type="Assigned" Source="Sponsor"/>
      </ItemDef>
      <ItemDef OID="IT.DD.DDDTC" Name="DDDTC" DataType="date" SASFieldName="DDDTC">
        <Description>
          <TranslatedText xml:lang="en">Date/Time of Collection</TranslatedText>
        </Description>
        <def:Origin Type="Collected" Source="Investigator">
          <def:DocumentRef leafID="LF.acrf.001">
            <def:PDFPageRef PageRefs="26" Type="PhysicalRef"/>
          </def:DocumentRef>
        </def:Origin>
      </ItemDef>
      <ItemDef OID="IT.DD.DDDY" Name="DDDY" DataType="integer" Length="8" SASFieldName="DDDY">
        <Description>
          <TranslatedText xml:lang="en">Study Day of Collection</TranslatedText>
        </Description>
        <def:Origin Type="Derived" Source="Sponsor"/>
      </ItemDef>
      <ItemDef OID="IT.DD.DDLNKID" Name="DDLNKID" DataType="text" Length="50" SASFieldName="DDLNKID">
        <Description>
          <TranslatedText xml:lang="en">Link ID</TranslatedText>
        </Description>
        <def:Origin Type="Collected" Source="Investigator">
          <def:DocumentRef leafID="LF.acrf.001">
            <def:PDFPageRef PageRefs="26" Type="PhysicalRef"/>
          </def:DocumentRef>
        </def:Origin>
      </ItemDef>
      <ItemDef OID="IT.DD.DDORRES" Name="DDORRES" DataType="text" Length="200" SASFieldName="DDORRES">
        <Description>
          <TranslatedText xml:lang="en">Result or Finding as Collected</TranslatedText>
        </Description>
        <def:Origin Type="Collected" Source="Investigator">
          <def:DocumentRef leafID="LF.acrf.001">
            <def:PDFPageRef PageRefs="26" Type="PhysicalRef"/>
          </def:DocumentRef>
        </def:Origin>
      </ItemDef>
      <ItemDef OID="IT.DD.DDSEQ" Name="DDSEQ" DataType="integer" Length="3" SASFieldName="DDSEQ">
        <Description>
          <TranslatedText xml:lang="en">Sequence Number</TranslatedText>
        </Description>
        <def:Origin Type="Derived" Source="Sponsor"/>
      </ItemDef>
      <ItemDef OID="IT.DD.DDSTRESC" Name="DDSTRESC" DataType="text" Length="200" SASFieldName="DDSTRESC">
        <Description>
          <TranslatedText xml:lang="en">Character Result/Finding in Std Format</TranslatedText>
        </Description>
        <def:Origin Type="Predecessor">
          <Description>
            <TranslatedText xml:lang="en">DDORRES</TranslatedText>
          </Description>
        </def:Origin>
      </ItemDef>
      <ItemDef OID="IT.DD.DDTEST" Name="DDTEST" DataType="text" Length="22" SASFieldName="DDTEST">
        <Description>
          <TranslatedText xml:lang="en">Death Detail Assessment Name</TranslatedText>
        </Description>
        <CodeListRef CodeListOID="CL.DDTEST"/>
        <def:Origin Type="Assigned" Source="Sponsor"/>
      </ItemDef>
      <ItemDef OID="IT.DD.DDTESTCD" Name="DDTESTCD" DataType="text" Length="6" SASFieldName="DDTESTCD">
        <Description>
          <TranslatedText xml:lang="en">Death Detail Assessment Short Name</TranslatedText>
        </Description>
        <CodeListRef CodeListOID="CL.DDTESTCD"/>
        <def:Origin Type="Assigned" Source="Sponsor"/>
      </ItemDef>
      <ItemDef OID="IT.DD.DOMAIN" Name="DOMAIN" DataType="text" Length="2" SASFieldName="DOMAIN">
        <Description>
          <TranslatedText xml:lang="en">Domain Abbreviation</TranslatedText>
        </Description>
        <CodeListRef CodeListOID="CL.DOMAIN_DD"/>
        <def:Origin Type="Assigned" Source="Sponsor"/>
      </ItemDef>
      <ItemDef OID="IT.DD.EPOCH" Name="EPOCH" DataType="text" Length="9" SASFieldName="EPOCH">
        <Description>
          <TranslatedText xml:lang="en">Epoch</TranslatedText>
        </Description>
        <CodeListRef CodeListOID="CL.EPOCH"/>
        <def:Origin Type="Derived" Source="Sponsor"/>
      </ItemDef>
      <ItemDef OID="IT.DD.STUDYID" Name="STUDYID" DataType="text" Length="12" SASFieldName="STUDYID">
        <Description>
          <TranslatedText xml:lang="en">Study Identifier</TranslatedText>
        </Description>
        <def:Origin Type="Assigned" Source="Sponsor"/>
      </ItemDef>
      <ItemDef OID="IT.DD.USUBJID" Name="USUBJID" DataType="text" Length="8" SASFieldName="USUBJID">
        <Description>
          <TranslatedText xml:lang="en">Unique Subject Identifier</TranslatedText>
        </Description>
        <def:Origin Type="Assigned" Source="Sponsor"/>
      </ItemDef>
      <ItemDef OID="IT.DI.DIPARM" Name="DIPARM" DataType="text" Length="13" SASFieldName="DIPARM">
        <Description>
          <TranslatedText xml:lang="en">Device Identifier Element Name</TranslatedText>
        </Description>
        <CodeListRef CodeListOID="CL.DIPARM"/>
        <def:Origin Type="Assigned" Source="Sponsor"/>
      </ItemDef>
      <ItemDef OID="IT.DI.DIPARMCD" Name="DIPARMCD" DataType="text" Length="7" SASFieldName="DIPARMCD">
        <Description>
          <TranslatedText xml:lang="en">Device Identifier Element Short Name</TranslatedText>
        </Description>
        <CodeListRef CodeListOID="CL.DIPARMCD"/>
        <def:Origin Type="Assigned" Source="Sponsor"/>
      </ItemDef>
      <ItemDef OID="IT.DI.DISEQ" Name="DISEQ" DataType="integer" Length="3" SASFieldName="DISEQ">
        <Description>
          <TranslatedText xml:lang="en">Sequence Number</TranslatedText>
        </Description>
        <def:Origin Type="Derived" Source="Sponsor"/>
      </ItemDef>
      <ItemDef OID="IT.DI.DIVAL" Name="DIVAL" DataType="text" Length="200" SASFieldName="DIVAL">
        <Description>
          <TranslatedText xml:lang="en">Device Identifier Element Value</TranslatedText>
        </Description>
        <def:Origin Type="Assigned" Source="Sponsor"/>
      </ItemDef>
      <ItemDef OID="IT.DI.DOMAIN" Name="DOMAIN" DataType="text" Length="2" SASFieldName="DOMAIN">
        <Description>
          <TranslatedText xml:lang="en">Domain Abbreviation</TranslatedText>
        </Description>
        <CodeListRef CodeListOID="CL.DOMAIN_DI"/>
        <def:Origin Type="Assigned" Source="Sponsor"/>
      </ItemDef>
      <ItemDef OID="IT.DI.SPDEVID" Name="SPDEVID" DataType="text" Length="200" SASFieldName="SPDEVID">
        <Description>
          <TranslatedText xml:lang="en">Sponsor Device Identifier</TranslatedText>
        </Description>
        <def:Origin Type="Assigned" Source="Sponsor"/>
      </ItemDef>
      <ItemDef OID="IT.DI.STUDYID" Name="STUDYID" DataType="text" Length="12" SASFieldName="STUDYID">
        <Description>
          <TranslatedText xml:lang="en">Study Identifier</TranslatedText>
        </Description>
        <def:Origin Type="Assigned" Source="Sponsor"/>
      </ItemDef>
      <ItemDef OID="IT.DM.ACTARM" Name="ACTARM" DataType="text" Length="28" SASFieldName="ACTARM">
        <Description>
          <TranslatedText xml:lang="en">Description of Actual Arm</TranslatedText>
        </Description>
        <CodeListRef CodeListOID="CL.ARM"/>
        <def:Origin Type="Assigned" Source="Sponsor"/>
      </ItemDef>
      <ItemDef OID="IT.DM.ACTARMCD" Name="ACTARMCD" DataType="text" Length="8" SASFieldName="ACTARMCD">
        <Description>
          <TranslatedText xml:lang="en">Actual Arm Code</TranslatedText>
        </Description>
        <CodeListRef CodeListOID="CL.ARMCD"/>
        <def:Origin Type="Assigned" Source="Sponsor"/>
      </ItemDef>
      <ItemDef OID="IT.DM.ACTARMUD" Name="ACTARMUD" DataType="text" Length="200" SASFieldName="ACTARMUD">
        <Description>
          <TranslatedText xml:lang="en">Description of Unplanned Actual Arm</TranslatedText>
        </Description>
        <def:Origin Type="Assigned" Source="Sponsor"/>
      </ItemDef>
      <ItemDef OID="IT.DM.AGE" Name="AGE" DataType="integer" Length="8" SASFieldName="AGE">
        <Description>
          <TranslatedText xml:lang="en">Age</TranslatedText>
        </Description>
        <def:Origin Type="Collected" Source="Investigator">
          <def:DocumentRef leafID="LF.acrf.001">
            <def:PDFPageRef PageRefs="5" Type="PhysicalRef"/>
          </def:DocumentRef>
        </def:Origin>
      </ItemDef>
      <ItemDef OID="IT.DM.AGEU" Name="AGEU" DataType="text" Length="5" SASFieldName="AGEU">
        <Description>
          <TranslatedText xml:lang="en">Age Units</TranslatedText>
        </Description>
        <CodeListRef CodeListOID="CL.AGEU_YEARS"/>
        <def:Origin Type="Assigned" Source="Sponsor"/>
      </ItemDef>
      <ItemDef OID="IT.DM.ARM" Name="ARM" DataType="text" Length="28" SASFieldName="ARM">
        <Description>
          <TranslatedText xml:lang="en">Description of Planned Arm</TranslatedText>
        </Description>
        <CodeListRef CodeListOID="CL.ARM"/>
        <def:Origin Type="Assigned" Source="Sponsor"/>
      </ItemDef>
      <ItemDef OID="IT.DM.ARMCD" Name="ARMCD" DataType="text" Length="8" SASFieldName="ARMCD">
        <Description>
          <TranslatedText xml:lang="en">Planned Arm Code</TranslatedText>
        </Description>
        <CodeListRef CodeListOID="CL.ARMCD"/>
        <def:Origin Type="Assigned" Source="Sponsor"/>
      </ItemDef>
      <ItemDef OID="IT.DM.ARMNRS" Name="ARMNRS" DataType="text" Length="14" SASFieldName="ARMNRS">
        <Description>
          <TranslatedText xml:lang="en">Reason Arm and/or Actual Arm is Null</TranslatedText>
        </Description>
        <CodeListRef CodeListOID="CL.ARMNRS"/>
        <def:Origin Type="Assigned" Source="Sponsor"/>
      </ItemDef>
      <ItemDef OID="IT.DM.BRTHDTC" Name="BRTHDTC" DataType="date" SASFieldName="BRTHDTC">
        <Description>
          <TranslatedText xml:lang="en">Date/Time of Birth</TranslatedText>
        </Description>
        <def:Origin Type="Collected" Source="Investigator">
          <def:DocumentRef leafID="LF.acrf.001">
            <def:PDFPageRef PageRefs="5" Type="PhysicalRef"/>
          </def:DocumentRef>
        </def:Origin>
      </ItemDef>
      <ItemDef OID="IT.DM.COUNTRY" Name="COUNTRY" DataType="text" Length="3" SASFieldName="COUNTRY">
        <Description>
          <TranslatedText xml:lang="en">Country</TranslatedText>
        </Description>
        <CodeListRef CodeListOID="CL.ISO3166"/>
        <def:Origin Type="Assigned" Source="Sponsor"/>
      </ItemDef>
      <ItemDef OID="IT.DM.DOMAIN" Name="DOMAIN" DataType="text" Length="2" SASFieldName="DOMAIN">
        <Description>
          <TranslatedText xml:lang="en">Domain Abbreviation</TranslatedText>
        </Description>
        <CodeListRef CodeListOID="CL.DOMAIN_DM"/>
        <def:Origin Type="Assigned" Source="Sponsor"/>
      </ItemDef>
      <ItemDef OID="IT.DM.DTHDTC" Name="DTHDTC" DataType="date" SASFieldName="DTHDTC">
        <Description>
          <TranslatedText xml:lang="en">Date/Time of Death</TranslatedText>
        </Description>
        <def:Origin Type="Collected" Source="Investigator">
          <def:DocumentRef leafID="LF.acrf.001">
            <def:PDFPageRef PageRefs="26" Type="PhysicalRef"/>
          </def:DocumentRef>
        </def:Origin>
      </ItemDef>
      <ItemDef OID="IT.DM.DTHFL" Name="DTHFL" DataType="text" Length="1" SASFieldName="DTHFL">
        <Description>
          <TranslatedText xml:lang="en">Subject Death Flag</TranslatedText>
        </Description>
        <CodeListRef CodeListOID="CL.NY_YONLY"/>
        <def:Origin Type="Derived" Source="Sponsor"/>
      </ItemDef>
      <ItemDef OID="IT.DM.ETHNIC" Name="ETHNIC" DataType="text" Length="22" SASFieldName="ETHNIC">
        <Description>
          <TranslatedText xml:lang="en">Ethnicity</TranslatedText>
        </Description>
        <CodeListRef CodeListOID="CL.ETHNIC"/>
        <def:Origin Type="Collected" Source="Investigator">
          <def:DocumentRef leafID="LF.acrf.001">
            <def:PDFPageRef PageRefs="5" Type="PhysicalRef"/>
          </def:DocumentRef>
        </def:Origin>
      </ItemDef>
      <ItemDef OID="IT.DM.RACE" Name="RACE" DataType="text" Length="41" SASFieldName="RACE">
        <Description>
          <TranslatedText xml:lang="en">Race</TranslatedText>
        </Description>
        <def:ValueListRef ValueListOID="VL.DM.RACE"/>
      </ItemDef>
      <ItemDef OID="IT.DM.RFENDTC" Name="RFENDTC" DataType="date" SASFieldName="RFENDTC">
        <Description>
          <TranslatedText xml:lang="en">Subject Reference End Date/Time</TranslatedText>
        </Description>
        <def:Origin Type="Derived" Source="Sponsor"/>
      </ItemDef>
      <ItemDef OID="IT.DM.RFICDTC" Name="RFICDTC" DataType="date" SASFieldName="RFICDTC">
        <Description>
          <TranslatedText xml:lang="en">Date/Time of Informed Consent</TranslatedText>
        </Description>
        <def:Origin Type="Collected" Source="Investigator">
          <def:DocumentRef leafID="LF.acrf.001">
            <def:PDFPageRef PageRefs="5" Type="PhysicalRef"/>
          </def:DocumentRef>
        </def:Origin>
      </ItemDef>
      <ItemDef OID="IT.DM.RFPENDTC" Name="RFPENDTC" DataType="date" SASFieldName="RFPENDTC">
        <Description>
          <TranslatedText xml:lang="en">Date/Time of End of Participation</TranslatedText>
        </Description>
        <def:Origin Type="Derived" Source="Sponsor"/>
      </ItemDef>
      <ItemDef OID="IT.DM.RFSTDTC" Name="RFSTDTC" DataType="date" SASFieldName="RFSTDTC">
        <Description>
          <TranslatedText xml:lang="en">Subject Reference Start Date/Time</TranslatedText>
        </Description>
        <def:Origin Type="Derived" Source="Sponsor"/>
      </ItemDef>
      <ItemDef OID="IT.DM.RFXENDTC" Name="RFXENDTC" DataType="date" SASFieldName="RFXENDTC">
        <Description>
          <TranslatedText xml:lang="en">Date/Time of Last Study Treatment</TranslatedText>
        </Description>
        <def:Origin Type="Derived" Source="Sponsor"/>
      </ItemDef>
      <ItemDef OID="IT.DM.RFXSTDTC" Name="RFXSTDTC" DataType="date" SASFieldName="RFXSTDTC">
        <Description>
          <TranslatedText xml:lang="en">Date/Time of First Study Treatment</TranslatedText>
        </Description>
        <def:Origin Type="Derived" Source="Sponsor"/>
      </ItemDef>
      <ItemDef OID="IT.DM.SEX" Name="SEX" DataType="text" Length="1" SASFieldName="SEX">
        <Description>
          <TranslatedText xml:lang="en">Sex</TranslatedText>
        </Description>
        <CodeListRef CodeListOID="CL.SEX"/>
        <def:Origin Type="Collected" Source="Investigator">
          <def:DocumentRef leafID="LF.acrf.001">
            <def:PDFPageRef PageRefs="5" Type="PhysicalRef"/>
          </def:DocumentRef>
        </def:Origin>
      </ItemDef>
      <ItemDef OID="IT.DM.SITEID" Name="SITEID" DataType="text" Length="3" SASFieldName="SITEID">
        <Description>
          <TranslatedText xml:lang="en">Study Site Identifier</TranslatedText>
        </Description>
        <CodeListRef CodeListOID="CL.SITEID"/>
        <def:Origin Type="Assigned" Source="Sponsor"/>
      </ItemDef>
      <ItemDef OID="IT.DM.STUDYID" Name="STUDYID" DataType="text" Length="12" SASFieldName="STUDYID">
        <Description>
          <TranslatedText xml:lang="en">Study Identifier</TranslatedText>
        </Description>
        <def:Origin Type="Protocol" Source="Sponsor"/>
      </ItemDef>
      <ItemDef OID="IT.DM.SUBJID" Name="SUBJID" DataType="text" Length="4" SASFieldName="SUBJID">
        <Description>
          <TranslatedText xml:lang="en">Subject Identifier for the Study</TranslatedText>
        </Description>
        <def:Origin Type="Assigned" Source="Sponsor"/>
      </ItemDef>
      <ItemDef OID="IT.DM.USUBJID" Name="USUBJID" DataType="text" Length="8" SASFieldName="USUBJID">
        <Description>
          <TranslatedText xml:lang="en">Unique Subject Identifier</TranslatedText>
        </Description>
        <def:Origin Type="Assigned" Source="Sponsor"/>
      </ItemDef>
      <ItemDef OID="IT.DS.DOMAIN" Name="DOMAIN" DataType="text" Length="2" SASFieldName="DOMAIN">
        <Description>
          <TranslatedText xml:lang="en">Domain Abbreviation</TranslatedText>
        </Description>
        <CodeListRef CodeListOID="CL.DOMAIN_DS"/>
        <def:Origin Type="Assigned" Source="Sponsor"/>
      </ItemDef>
      <ItemDef OID="IT.DS.DSCAT" Name="DSCAT" DataType="text" Length="18" SASFieldName="DSCAT" def:CommentOID="COM.DS.DSCAT">
        <Description>
          <TranslatedText xml:lang="en">Category for Disposition Event</TranslatedText>
        </Description>
        <CodeListRef CodeListOID="CL.DSCAT"/>
        <def:Origin Type="Assigned" Source="Sponsor">
          <def:DocumentRef leafID="LF.acrf.001">
            <def:PDFPageRef PageRefs="5 27 28" Type="PhysicalRef"/>
          </def:DocumentRef>
        </def:Origin>
      </ItemDef>
      <ItemDef OID="IT.DS.DSDECOD" Name="DSDECOD" DataType="text" Length="29" SASFieldName="DSDECOD">
        <Description>
          <TranslatedText xml:lang="en">Standardized Disposition Term</TranslatedText>
        </Description>
        <def:ValueListRef ValueListOID="VL.DS.DSDECOD"/>
      </ItemDef>
      <ItemDef OID="IT.DS.DSLNKID" Name="DSLNKID" DataType="text" Length="50" SASFieldName="DSLNKID">
        <Description>
          <TranslatedText xml:lang="en">Link ID</TranslatedText>
        </Description>
        <def:Origin Type="Collected" Source="Investigator">
          <def:DocumentRef leafID="LF.acrf.001">
            <def:PDFPageRef PageRefs="27 28" Type="PhysicalRef"/>
          </def:DocumentRef>
        </def:Origin>
      </ItemDef>
      <ItemDef OID="IT.DS.DSSCAT" Name="DSSCAT" DataType="text" Length="19" SASFieldName="DSSCAT" def:CommentOID="COM.DS.DSSCAT">
        <Description>
          <TranslatedText xml:lang="en">Subcategory for Disposition Event</TranslatedText>
        </Description>
        <CodeListRef CodeListOID="CL.DSSCAT"/>
        <def:Origin Type="Assigned" Source="Sponsor">
          <def:DocumentRef leafID="LF.acrf.001">
            <def:PDFPageRef PageRefs="27 28" Type="PhysicalRef"/>
          </def:DocumentRef>
        </def:Origin>
      </ItemDef>
      <ItemDef OID="IT.DS.DSSEQ" Name="DSSEQ" DataType="integer" Length="3" SASFieldName="DSSEQ">
        <Description>
          <TranslatedText xml:lang="en">Sequence Number</TranslatedText>
        </Description>
        <def:Origin Type="Derived" Source="Sponsor"/>
      </ItemDef>
